File: Test Data/Rubber band/Tensile Data/data.csv
Déplacement;Charge;Contrainte de traction;Temps;Nbre de cycles;ID de segment;Données marquées;Nombre de marques;Ténacité;Déplacement de traction;Déformation de traction;Position corrigée
(mm);(N);(MPa);(sec);;;;;(gf/tex);(mm);(mm/mm);(mm)
0,00000;0,79304;0,07930;0,00000;0;5;0;0;0,80867;0,00000;0,00000;0,00000
0,00000;0,79265;0,07926;0,00400;0;22412;0;0;0,80827;0,00000;0,00000;0,00000
0,12984;1,26937;0,12694;0,20400;0;22412;0;0;1,29440;0,12984;0,00130;0,12984
0,26625;1,66948;0,16695;0,40400;0;22412;0;0;1,70240;0,26625;0,00266;0,26625
0,39891;1,99816;0,19982;0,60400;0;22412;0;0;2,03756;0,39891;0,00399;0,39891
0,53328;2,31289;0,23129;0,80400;0;22412;0;0;2,35849;0,53328;0,00533;0,53328
0,66687;2,61243;0,26124;1,00400;0;22412;0;0;2,66393;0,66687;0,00667;0,66687
0,79984;2,89320;0,28932;1,20400;0;22412;0;0;2,95024;0,79984;0,00800;0,79984
0,93344;3,16144;0,31614;1,40400;0;22412;0;0;3,22377;0,93344;0,00933;0,93344
1,06672;3,42306;0,34231;1,60400;0;22412;0;0;3,49055;1,06672;0,01067;1,06672
1,19875;3,67344;0,36734;1,80400;0;22412;0;0;3,74587;1,19875;0,01199;1,19875
1,33375;3,92116;0,39212;2,00400;0;22412;0;0;3,99847;1,33375;0,01334;1,33375
1,46812;4,16555;0,41656;2,20400;0;22412;0;0;4,24768;1,46812;0,01468;1,46812
1,60016;4,38334;0,43833;2,40400;0;22412;0;0;4,46976;1,60016;0,01600;1,60016
1,73203;4,60206;0,46021;2,60400;0;22412;0;0;4,69279;1,73203;0,01732;1,73203
1,86734;4,82393;0,48239;2,80400;0;22412;0;0;4,91904;1,86734;0,01867;1,86734
2,00031;5,03454;0,50345;3,00400;0;22412;0;0;5,13380;2,00031;0,02000;2,00031
2,13359;5,24621;0,52462;3,20400;0;22412;0;0;5,34964;2,13359;0,02134;2,13359
2,26703;5,44756;0,54476;3,40400;0;22412;0;0;5,55497;2,26703;0,02267;2,26703
2,40000;5,64126;0,56413;3,60400;0;22412;0;0;5,75248;2,40000;0,02400;2,40000
2,53203;5,83749;0,58375;3,80400;0;22412;0;0;5,95259;2,53203;0,02532;2,53203
2,66766;6,03244;0,60324;4,00400;0;22412;0;0;6,15138;2,66766;0,02668;2,66766
2,80062;6,21378;0,62138;4,20400;0;22412;0;0;6,33629;2,80062;0,02801;2,80062
2,93281;6,39185;0,63918;4,40400;0;22412;0;0;6,51787;2,93281;0,02933;2,93281
3,06578;6,57678;0,65768;4,60400;0;22412;0;0;6,70645;3,06578;0,03066;3,06578
3,20016;6,75572;0,67557;4,80400;0;22412;0;0;6,88891;3,20016;0,03200;3,20016
3,33250;6,92652;0,69265;5,00400;0;22412;0;0;7,06308;3,33250;0,03332;3,33250
3,46672;7,10282;0,71028;5,20400;0;22412;0;0;7,24286;3,46672;0,03467;3,46672
3,60016;7,27025;0,72703;5,40400;0;22412;0;0;7,41360;3,60016;0,03600;3,60016
3,73281;7,43344;0,74334;5,60400;0;22412;0;0;7,58000;3,73281;0,03733;3,73281
3,86516;7,59397;0,75940;5,80400;0;22412;0;0;7,74369;3,86516;0,03865;3,86516
4,00062;7,76165;0,77617;6,00400;0;22412;0;0;7,91468;4,00062;0,04001;4,00062
4,13391;7,92380;0,79238;6,20400;0;22412;0;0;8,08003;4,13391;0,04134;4,13391
4,26609;8,07614;0,80761;6,40400;0;22412;0;0;8,23537;4,26609;0,04266;4,26609
4,39922;8,23045;0,82304;6,60400;0;22412;0;0;8,39272;4,39922;0,04399;4,39922
4,53359;8,38440;0,83844;6,80400;0;22412;0;0;8,54970;4,53359;0,04534;4,53359
4,66625;8,53212;0,85321;7,00400;0;22412;0;0;8,70034;4,66625;0,04666;4,66625
4,79984;8,68660;0,86866;7,20400;0;22412;0;0;8,85787;4,79984;0,04800;4,79984
4,93359;8,84091;0,88409;7,40400;0;22412;0;0;9,01522;4,93359;0,04934;4,93359
5,06594;8,97887;0,89789;7,60400;0;22412;0;0;9,15590;5,06594;0,05066;5,06594
5,19906;9,11766;0,91177;7,80400;0;22412;0;0;9,29742;5,19906;0,05199;5,19906
5,33422;9,27020;0,92702;8,00400;0;22412;0;0;9,45298;5,33422;0,05334;5,33422
5,46734;9,41139;0,94114;8,20400;0;22412;0;0;9,59695;5,46734;0,05467;5,46734
5,59937;9,54388;0,95439;8,40400;0;22412;0;0;9,73205;5,59937;0,05599;5,59937
5,73281;9,67846;0,96785;8,60400;0;22412;0;0;9,86928;5,73281;0,05733;5,73281
5,86641;9,82086;0,98209;8,80400;0;22412;0;0;10,01449;5,86641;0,05866;5,86641
6,00031;9,95735;0,99573;9,00400;0;22412;0;0;10,15367;6,00031;0,06000;6,00031
6,13391;10,09191;1,00919;9,20400;0;22412;0;0;10,29089;6,13391;0,06134;6,13391
6,26734;10,22171;1,02217;9,40400;0;22412;0;0;10,42324;6,26734;0,06267;6,26734
6,39891;10,34617;1,03462;9,60400;0;22412;0;0;10,55015;6,39891;0,06399;6,39891
6,53281;10,48237;1,04824;9,80400;0;22412;0;0;10,68904;6,53281;0,06533;6,53281
6,66719;10,61472;1,06147;10,00400;0;22412;0;0;10,82400;6,66719;0,06667;6,66719
6,80016;10,74219;1,07422;10,20400;0;22412;0;0;10,95398;6,80016;0,06800;6,80016
6,93266;10,86003;1,08600;10,40400;0;22412;0;0;11,07415;6,93265;0,06933;6,93266
7,06656;10,98610;1,09861;10,60400;0;22412;0;0;11,20271;7,06656;0,07067;7,06656
7,19953;11,10393;1,11039;10,80400;0;22412;0;0;11,32286;7,19953;0,07200;7,19953
7,33266;11,23066;1,12307;11,00400;0;22412;0;0;11,45208;7,33265;0,07333;7,33266
7,46734;11,35253;1,13525;11,20400;0;22412;0;0;11,57636;7,46734;0,07467;7,46734
7,60031;11,47284;1,14728;11,40400;0;22412;0;0;11,69904;7,60031;0,07600;7,60031
7,73094;11,58307;1,15831;11,60400;0;22412;0;0;11,81144;7,73094;0,07731;7,73094
7,86656;11,71021;1,17102;11,80400;0;22412;0;0;11,94109;7,86656;0,07867;7,86656
8,00078;11,82917;1,18292;12,00400;0;22412;0;0;12,06239;8,00078;0,08001;8,00078
8,13281;11,94180;1,19418;12,20400;0;22412;0;0;12,17724;8,13281;0,08133;8,13281
8,26656;12,05282;1,20528;12,40400;0;22412;0;0;12,29045;8,26656;0,08267;8,26656
8,39969;12,16790;1,21679;12,60400;0;22412;0;0;12,40780;8,39969;0,08400;8,39969
8,53265;12,28033;1,22803;12,80400;0;22412;0;0;12,52245;8,53265;0,08533;8,53265
8,66640;12,39482;1,23948;13,00400;0;22412;0;0;12,63920;8,66640;0,08666;8,66640
8,80094;12,50722;1,25072;13,20400;0;22412;0;0;12,75381;8,80094;0,08801;8,80094
8,93328;12,61360;1,26136;13,40400;0;22412;0;0;12,86230;8,93328;0,08933;8,93328
9,06547;12,71894;1,27189;13,60400;0;22412;0;0;12,96971;9,06547;0,09065;9,06547
9,20000;12,83420;1,28342;13,80400;0;22412;0;0;13,08724;9,20000;0,09200;9,20000
9,33453;12,94235;1,29423;14,00400;0;22412;0;0;13,19752;9,33453;0,09335;9,33453
9,46703;13,04963;1,30496;14,20400;0;22412;0;0;13,30692;9,46703;0,09467;9,46703
9,60016;13,15483;1,31548;14,40400;0;22412;0;0;13,41419;9,60015;0,09600;9,60016
9,73375;13,26088;1,32609;14,60400;0;22412;0;0;13,52233;9,73375;0,09734;9,73375
9,86609;13,36584;1,33658;14,80400;0;22412;0;0;13,62936;9,86609;0,09866;9,86609
9,99937;13,47427;1,34743;15,00400;0;22412;0;0;13,73993;9,99937;0,09999;9,99937
10,13469;13,58210;1,35821;15,20400;0;22412;0;0;13,84989;10,13469;0,10135;10,13469
10,26687;13,67351;1,36735;15,40400;0;22412;0;0;13,94310;10,26687;0,10267;10,26687
10,39797;13,76939;1,37694;15,60400;0;22412;0;0;14,04087;10,39797;0,10398;10,39797
10,53328;13,88140;1,38814;15,80400;0;22412;0;0;14,15509;10,53328;0,10533;10,53328
10,66765;13,98196;1,39820;16,00400;0;22412;0;0;14,25763;10,66765;0,10668;10,66765
10,79969;14,07899;1,40790;16,20400;0;22412;0;0;14,35658;10,79969;0,10800;10,79969
10,93359;14,17938;1,41794;16,40400;0;22412;0;0;14,45894;10,93359;0,10934;10,93359
11,06625;14,27172;1,42717;16,60400;0;22412;0;0;14,55310;11,06625;0,11066;11,06625
11,19875;14,37509;1,43751;16,80400;0;22412;0;0;14,65852;11,19875;0,11199;11,19875
11,33390;14,47745;1,44774;17,00400;0;22412;0;0;14,76289;11,33390;0,11334;11,33390
11,46750;14,57725;1,45773;17,20400;0;22412;0;0;14,86466;11,46750;0,11467;11,46750
11,59859;14,66689;1,46669;17,40400;0;22412;0;0;14,95607;11,59859;0,11599;11,59859
11,73219;14,75951;1,47595;17,60400;0;22412;0;0;15,05051;11,73219;0,11732;11,73219
11,86594;14,86132;1,48613;17,80400;0;22412;0;0;15,15433;11,86594;0,11866;11,86594
12,00078;14,95558;1,49556;18,00400;0;22412;0;0;15,25045;12,00078;0,12001;12,00078
12,13359;15,04891;1,50489;18,20400;0;22412;0;0;15,34562;12,13359;0,12134;12,13359
12,26781;15,14315;1,51432;18,40400;0;22412;0;0;15,44172;12,26781;0,12268;12,26781
12,39937;15,22694;1,52269;18,60400;0;22412;0;0;15,52715;12,39937;0,12399;12,39937
12,53109;15,31531;1,53153;18,80400;0;22412;0;0;15,61727;12,53109;0,12531;12,53109
12,66734;15,42562;1,54256;19,00400;0;22412;0;0;15,72976;12,66734;0,12667;12,66734
12,80140;15,51987;1,55199;19,20400;0;22412;0;0;15,82586;12,80140;0,12801;12,80140
12,75875;15,30137;1,53014;19,30600;0;22476;0;0;15,60306;12,75875;0,12759;12,75875
12,60328;14,74690;1,47469;19,50600;0;22476;0;0;15,03765;12,60328;0,12603;12,60328
12,46797;14,37398;1,43740;19,70600;0;22476;0;0;14,65738;12,46797;0,12468;12,46797
12,33437;14,04617;1,40462;19,90600;0;22476;0;0;14,32311;12,33437;0,12334;12,33437
12,19890;13,73643;1,37364;20,10600;0;22476;0;0;14,00726;12,19890;0,12199;12,19890
12,06656;13,46414;1,34641;20,30600;0;22476;0;0;13,72960;12,06656;0,12067;12,06656
11,93312;13,20675;1,32067;20,50600;0;22476;0;0;13,46714;11,93312;0,11933;11,93312
11,79953;12,95493;1,29549;20,70600;0;22476;0;0;13,21036;11,79953;0,11800;11,79953
11,66672;12,72103;1,27210;20,90600;0;22476;0;0;12,97184;11,66672;0,11667;11,66672
11,53469;12,49715;1,24971;21,10600;0;22476;0;0;12,74354;11,53469;0,11535;11,53469
11,39953;12,26534;1,22653;21,30600;0;22476;0;0;12,50716;11,39953;0,11400;11,39953
11,26531;12,05173;1,20517;21,50600;0;22476;0;0;12,28934;11,26531;0,11265;11,26531
11,13312;11,84874;1,18487;21,70600;0;22476;0;0;12,08235;11,13312;0,11133;11,13312
11,00140;11,64976;1,16498;21,90600;0;22476;0;0;11,87945;11,00140;0,11001;11,00140
10,86562;11,44305;1,14431;22,10600;0;22476;0;0;11,66867;10,86562;0,10866;10,86562
10,73359;11,24718;1,12472;22,30600;0;22476;0;0;11,46893;10,73359;0,10734;10,73359
10,59937;11,05564;1,10556;22,50600;0;22476;0;0;11,27362;10,59937;0,10599;10,59937
10,46562;10,86437;1,08644;22,70600;0;22476;0;0;11,07858;10,46562;0,10466;10,46562
10,33359;10,68478;1,06848;22,90600;0;22476;0;0;10,89544;10,33359;0,10334;10,33359
10,20031;10,50274;1,05027;23,10600;0;22476;0;0;10,70982;10,20031;0,10200;10,20031
10,06547;10,31601;1,03160;23,30600;0;22476;0;0;10,51940;10,06547;0,10065;10,06547
9,93203;10,13978;1,01398;23,50600;0;22476;0;0;10,33970;9,93203;0,09932;9,93203
9,80062;9,96416;0,99642;23,70600;0;22476;0;0;10,16061;9,80062;0,09801;9,80062
9,66656;9,78830;0,97883;23,90600;0;22476;0;0;9,98129;9,66656;0,09667;9,66656
9,53281;9,61058;0,96106;24,10600;0;22476;0;0;9,80006;9,53281;0,09533;9,53281
9,40000;9,44652;0,94465;24,30600;0;22476;0;0;9,63277;9,40000;0,09400;9,40000
9,26609;9,27437;0,92744;24,50600;0;22476;0;0;9,45723;9,26609;0,09266;9,26609
9,13234;9,10105;0,91010;24,70600;0;22476;0;0;9,28049;9,13234;0,09132;9,13234
9,00094;8,93984;0,89398;24,90600;0;22476;0;0;9,11610;9,00094;0,09001;9,00094
8,86797;8,77484;0,87748;25,10600;0;22476;0;0;8,94785;8,86797;0,08868;8,86797
8,73187;8,59494;0,85949;25,30600;0;22476;0;0;8,76440;8,73187;0,08732;8,73187
8,59953;8,43835;0,84384;25,50600;0;22476;0;0;8,60472;8,59953;0,08600;8,59953
8,46687;8,27426;0,82743;25,70600;0;22476;0;0;8,43740;8,46687;0,08467;8,46687
8,33375;8,11642;0,81164;25,90600;0;22476;0;0;8,27644;8,33375;0,08334;8,33375
8,20078;7,95477;0,79548;26,10600;0;22476;0;0;8,11161;8,20078;0,08201;8,20078
8,06687;7,78625;0,77862;26,30600;0;22476;0;0;7,93976;8,06687;0,08067;8,06687
7,93265;7,62230;0,76223;26,50600;0;22476;0;0;7,77258;7,93265;0,07933;7,93265
7,79891;7,46063;0,74606;26,70600;0;22476;0;0;7,60773;7,79891;0,07799;7,79891
7,66797;7,30578;0,73058;26,90600;0;22476;0;0;7,44982;7,66797;0,07668;7,66797
7,53328;7,14530;0,71453;27,10600;0;22476;0;0;7,28618;7,53328;0,07533;7,53328
7,39906;6,97949;0,69795;27,30600;0;22476;0;0;7,11710;7,39906;0,07399;7,39906
7,26609;6,82684;0,68268;27,50600;0;22476;0;0;6,96144;7,26609;0,07266;7,26609
7,13422;6,67211;0,66721;27,70600;0;22476;0;0;6,80365;7,13422;0,07134;7,13422
6,99953;6,50251;0,65025;27,90600;0;22476;0;0;6,63071;6,99953;0,07000;6,99953
6,86609;6,34740;0,63474;28,10600;0;22476;0;0;6,47254;6,86609;0,06866;6,86609
6,73391;6,18548;0,61855;28,30600;0;22476;0;0;6,30743;6,73391;0,06734;6,73391
6,59937;6,02466;0,60247;28,50600;0;22476;0;0;6,14344;6,59937;0,06599;6,59937
6,46578;5,86422;0,58642;28,70600;0;22476;0;0;5,97984;6,46578;0,06466;6,46578
6,33406;5,71104;0,57110;28,90600;0;22476;0;0;5,82364;6,33406;0,06334;6,33406
6,19984;5,54767;0,55477;29,10600;0;22476;0;0;5,65705;6,19984;0,06200;6,19984
6,06547;5,38333;0,53833;29,30600;0;22476;0;0;5,48947;6,06547;0,06065;6,06547
5,93344;5,22820;0,52282;29,50600;0;22476;0;0;5,33128;5,93344;0,05933;5,93344
5,80031;5,07226;0,50723;29,70600;0;22476;0;0;5,17227;5,80031;0,05800;5,80031
5,66625;4,90768;0,49077;29,90600;0;22476;0;0;5,00444;5,66625;0,05666;5,66625
5,53375;4,74369;0,47437;30,10600;0;22476;0;0;4,83722;5,53375;0,05534;5,53375
5,40062;4,58272;0,45827;30,30600;0;22476;0;0;4,67308;5,40062;0,05401;5,40062
5,26516;4,41004;0,44100;30,50600;0;22476;0;0;4,49699;5,26516;0,05265;5,26516
5,13281;4,25428;0,42543;30,70600;0;22476;0;0;4,33816;5,13281;0,05133;5,13281
5,00000;4,09297;0,40930;30,90600;0;22476;0;0;4,17366;5,00000;0,05000;5,00000
4,86656;3,92707;0,39271;31,10600;0;22476;0;0;4,00449;4,86656;0,04867;4,86656
4,73312;3,76173;0,37617;31,30600;0;22476;0;0;3,83590;4,73312;0,04733;4,73312
4,59937;3,59971;0,35997;31,50600;0;22476;0;0;3,67069;4,59937;0,04599;4,59937
4,46656;3,43539;0,34354;31,70600;0;22476;0;0;3,50312;4,46656;0,04467;4,46656
4,33281;3,27090;0,32709;31,90600;0;22476;0;0;3,33539;4,33281;0,04333;4,33281
4,20062;3,10944;0,31094;32,10600;0;22476;0;0;3,17075;4,20062;0,04201;4,20062
4,06672;2,93517;0,29352;32,30600;0;22476;0;0;2,99305;4,06672;0,04067;4,06672
3,93219;2,76560;0,27656;32,50600;0;22476;0;0;2,82012;3,93219;0,03932;3,93219
3,80047;2,60651;0,26065;32,70600;0;22476;0;0;2,65790;3,80047;0,03800;3,80047
3,66766;2,43669;0,24367;32,90600;0;22476;0;0;2,48473;3,66766;0,03668;3,66766
3,53328;2,26273;0,22627;33,10600;0;22476;0;0;2,30734;3,53328;0,03533;3,53328
3,39922;2,09339;0,20934;33,30600;0;22476;0;0;2,13466;3,39922;0,03399;3,39922
3,26719;1,92803;0,19280;33,50600;0;22476;0;0;1,96604;3,26719;0,03267;3,26719
3,13297;1,75812;0,17581;33,70600;0;22476;0;0;1,79279;3,13297;0,03133;3,13297
3,00000;1,59100;0,15910;33,90600;0;22476;0;0;1,62237;3,00000;0,03000;3,00000
2,86734;1,41870;0,14187;34,10600;0;22476;0;0;1,44667;2,86734;0,02867;2,86734
2,73281;1,25299;0,12530;34,30600;0;22476;0;0;1,27769;2,73281;0,02733;2,73281
2,59875;1,08826;0,10883;34,50600;0;22476;0;0;1,10972;2,59875;0,02599;2,59875
2,46687;0,93751;0,09375;34,70600;0;22476;0;0;0,95599;2,46687;0,02467;2,46687
2,33391;0,78114;0,07811;34,90600;0;22476;0;0;0,79654;2,33391;0,02334;2,33391
2,19937;0,63080;0,06308;35,10600;0;22476;0;0;0,64324;2,19937;0,02199;2,19937
2,06609;0,49718;0,04972;35,30600;0;22476;0;0;0,50698;2,06609;0,02066;2,06609
1,93281;0,37788;0,03779;35,50600;0;22476;0;0;0,38533;1,93281;0,01933;1,93281
1,79891;0,26796;0,02680;35,70600;0;22476;0;0;0,27324;1,79891;0,01799;1,79891
1,66687;0,17271;0,01727;35,90600;0;22476;0;0;0,17611;1,66687;0,01667;1,66687
1,53437;0,08338;0,00834;36,10600;0;22476;0;0;0,08503;1,53437;0,01534;1,53437
1,39969;0,00737;0,00074;36,30600;0;22476;0;0;0,00752;1,39969;0,01400;1,39969
1,26531;-0,06033;-0,00603;36,50600;0;22476;0;0;-0,06152;1,26531;0,01265;1,26531
1,13328;-0,09989;-0,00999;36,70600;0;22476;0;0;-0,10185;1,13328;0,01133;1,13328
1,00031;-0,14077;-0,01408;36,90600;0;22476;0;0;-0,14354;1,00031;0,01000;1,00031
0,86594;-0,17176;-0,01718;37,10600;0;22476;0;0;-0,17515;0,86594;0,00866;0,86594
0,73391;-0,19546;-0,01955;37,30600;0;22476;0;0;-0,19931;0,73391;0,00734;0,73391
0,59984;-0,20902;-0,02090;37,50600;0;22476;0;0;-0,21315;0,59984;0,00600;0,59984
0,46562;-0,21780;-0,02178;37,70600;0;22476;0;0;-0,22210;0,46562;0,00466;0,46562
0,33297;-0,21515;-0,02152;37,90600;0;22476;0;0;-0,21939;0,33297;0,00333;0,33297
0,20156;-0,21168;-0,02117;38,10600;0;22476;0;0;-0,21585;0,20156;0,00202;0,20156
0,06578;-0,22363;-0,02236;38,30600;0;22476;0;0;-0,22804;0,06578;0,00066;0,06578
-0,00094;-0,20900;-0,02090;38,40800;0;22476;0;0;-0,21312;-0,00094;-0,00001;-0,00094
0,03781;-0,19593;-0,01959;38,51000;1;22412;0;0;-0,19980;0,03781;0,00038;0,03781
0,19500;-0,16888;-0,01689;38,71000;1;22412;0;0;-0,17221;0,19500;0,00195;0,19500
0,33250;-0,12532;-0,01253;38,91000;1;22412;0;0;-0,12779;0,33250;0,00332;0,33250
0,46531;-0,08571;-0,00857;39,11000;1;22412;0;0;-0,08740;0,46531;0,00465;0,46531
0,59875;-0,02930;-0,00293;39,31000;1;22412;0;0;-0,02988;0,59875;0,00599;0,59875
0,73187;0,05630;0,00563;39,51000;1;22412;0;0;0,05741;0,73187;0,00732;0,73187
0,86469;0,17485;0,01748;39,71000;1;22412;0;0;0,17829;0,86469;0,00865;0,86469
0,99844;0,32195;0,03219;39,91000;1;22412;0;0;0,32830;0,99844;0,00998;0,99844
1,13250;0,49767;0,04977;40,11000;1;22412;0;0;0,50749;1,13250;0,01132;1,13250
1,26594;0,69150;0,06915;40,31000;1;22412;0;0;0,70513;1,26594;0,01266;1,26594
1,39734;0,90554;0,09055;40,51000;1;22412;0;0;0,92340;1,39734;0,01397;1,39734
1,53125;1,15102;0,11510;40,71000;1;22412;0;0;1,17372;1,53125;0,01531;1,53125
1,66562;1,41263;0,14126;40,91000;1;22412;0;0;1,44048;1,66562;0,01666;1,66562
1,79859;1,68204;0,16820;41,11000;1;22412;0;0;1,71520;1,79859;0,01799;1,79859
1,93078;1,95485;0,19548;41,31000;1;22412;0;0;1,99339;1,93078;0,01931;1,93078
2,06578;2,24545;0,22454;41,51000;1;22412;0;0;2,28972;2,06578;0,02066;2,06578
2,19828;2,51877;0,25188;41,71000;1;22412;0;0;2,56843;2,19828;0,02198;2,19828
2,33141;2,79612;0,27961;41,91000;1;22412;0;0;2,85124;2,33141;0,02331;2,33141
2,46594;3,06869;0,30687;42,11000;1;22412;0;0;3,12919;2,46594;0,02466;2,46594
2,59906;3,32554;0,33255;42,31000;1;22412;0;0;3,39111;2,59906;0,02599;2,59906
2,73047;3,56686;0,35669;42,51000;1;22412;0;0;3,63718;2,73047;0,02730;2,73047
2,86516;3,81606;0,38161;42,71000;1;22412;0;0;3,89130;2,86516;0,02865;2,86516
2,99922;4,05457;0,40546;42,91000;1;22412;0;0;4,13451;2,99922;0,02999;2,99922
3,13156;4,28305;0,42831;43,11000;1;22412;0;0;4,36750;3,13156;0,03132;3,13156
3,26562;4,51044;0,45104;43,31000;1;22412;0;0;4,59936;3,26562;0,03266;3,26562
3,39891;4,72776;0,47278;43,51000;1;22412;0;0;4,82097;3,39891;0,03399;3,39891
3,53156;4,94497;0,49450;43,71000;1;22412;0;0;5,04246;3,53156;0,03532;3,53156
3,66531;5,15592;0,51559;43,91000;1;22412;0;0;5,25757;3,66531;0,03665;3,66531
3,79953;5,37073;0,53707;44,11000;1;22412;0;0;5,47662;3,79953;0,03800;3,79953
3,93156;5,56809;0,55681;44,31000;1;22412;0;0;5,67787;3,93156;0,03932;3,93156
4,06437;5,76480;0,57648;44,51000;1;22412;0;0;5,87846;4,06437;0,04064;4,06437
4,19891;5,96895;0,59690;44,71000;1;22412;0;0;6,08664;4,19891;0,04199;4,19891
4,33266;6,16196;0,61620;44,91000;1;22412;0;0;6,28345;4,33266;0,04333;4,33266
4,46484;6,34564;0,63456;45,11000;1;22412;0;0;6,47075;4,46484;0,04465;4,46484
4,59922;6,53555;0,65355;45,31000;1;22412;0;0;6,66440;4,59922;0,04599;4,59922
4,73172;6,71893;0,67189;45,51000;1;22412;0;0;6,85140;4,73172;0,04732;4,73172
4,86359;6,89853;0,68985;45,71000;1;22412;0;0;7,03454;4,86359;0,04864;4,86359
4,99812;7,07848;0,70785;45,91000;1;22412;0;0;7,21805;4,99812;0,04998;4,99812
5,13359;7,25576;0,72558;46,11000;1;22412;0;0;7,39882;5,13359;0,05134;5,13359
5,26469;7,42229;0,74223;46,31000;1;22412;0;0;7,56863;5,26469;0,05265;5,26469
5,39750;7,59426;0,75943;46,51000;1;22412;0;0;7,74399;5,39750;0,05397;5,39750
5,53187;7,77176;0,77718;46,71000;1;22412;0;0;7,92499;5,53187;0,05532;5,53187
5,66531;7,93811;0,79381;46,91000;1;22412;0;0;8,09462;5,66531;0,05665;5,66531
5,79812;8,10092;0,81009;47,11000;1;22412;0;0;8,26064;5,79812;0,05798;5,79812
5,93266;8,26567;0,82657;47,31000;1;22412;0;0;8,42863;5,93266;0,05933;5,93266
6,06469;8,42532;0,84253;47,51000;1;22412;0;0;8,59143;6,06469;0,06065;6,06469
6,19703;8,58300;0,85830;47,71000;1;22412;0;0;8,75223;6,19703;0,06197;6,19703
6,33281;8,74619;0,87462;47,91000;1;22412;0;0;8,91864;6,33281;0,06333;6,33281
6,46641;8,90215;0,89022;48,11000;1;22412;0;0;9,07767;6,46640;0,06466;6,46641
6,59781;9,04905;0,90491;48,31000;1;22412;0;0;9,22746;6,59781;0,06598;6,59781
6,73094;9,20556;0,92056;48,51000;1;22412;0;0;9,38706;6,73094;0,06731;6,73094
6,86531;9,36177;0,93618;48,71000;1;22412;0;0;9,54634;6,86531;0,06865;6,86531
6,99828;9,50851;0,95085;48,91000;1;22412;0;0;9,69598;6,99828;0,06998;6,99828
7,13266;9,65908;0,96591;49,11000;1;22412;0;0;9,84952;7,13266;0,07133;7,13266
7,26594;9,80652;0,98065;49,31000;1;22412;0;0;9,99987;7,26594;0,07266;7,26594
7,39812;9,94943;0,99494;49,51000;1;22412;0;0;10,14560;7,39812;0,07398;7,39812
7,53047;10,08908;1,00891;49,71000;1;22412;0;0;10,28799;7,53047;0,07530;7,53047
7,66609;10,24381;1,02438;49,91000;1;22412;0;0;10,44577;7,66609;0,07666;7,66609
7,79937;10,38358;1,03836;50,11000;1;22412;0;0;10,58830;7,79937;0,07799;7,79937
7,93140;10,52087;1,05209;50,31000;1;22412;0;0;10,72831;7,93140;0,07931;7,93140
8,06484;10,65665;1,06567;50,51000;1;22412;0;0;10,86676;8,06484;0,08065;8,06484
8,20000;10,79890;1,07989;50,71000;1;22412;0;0;11,01181;8,20000;0,08200;8,20000
8,33125;10,92904;1,09290;50,91000;1;22412;0;0;11,14452;8,33125;0,08331;8,33125
8,46531;11,07283;1,10728;51,11000;1;22412;0;0;11,29114;8,46531;0,08465;8,46531
8,59937;11,20819;1,12082;51,31000;1;22412;0;0;11,42917;8,59937;0,08599;8,59937
8,73078;11,33448;1,13345;51,51000;1;22412;0;0;11,55795;8,73078;0,08731;8,73078
8,86469;11,47004;1,14700;51,71000;1;22412;0;0;11,69618;8,86469;0,08865;8,86469
8,99937;11,61025;1,16102;51,91000;1;22412;0;0;11,83916;8,99937;0,08999;8,99937
9,13250;11,73842;1,17384;52,11000;1;22412;0;0;11,96986;9,13250;0,09132;9,13250
9,26422;11,86520;1,18652;52,31000;1;22412;0;0;12,09913;9,26422;0,09264;9,26422
9,39781;11,99411;1,19941;52,51000;1;22412;0;0;12,23059;9,39781;0,09398;9,39781
9,53172;12,11950;1,21195;52,71000;1;22412;0;0;12,35845;9,53172;0,09532;9,53172
9,66437;12,25287;1,22529;52,91000;1;22412;0;0;12,49445;9,66437;0,09664;9,66437
9,79953;12,38316;1,23832;53,11000;1;22412;0;0;12,62731;9,79953;0,09800;9,79953
9,93187;12,50821;1,25082;53,31000;1;22412;0;0;12,75483;9,93187;0,09932;9,93187
10,06406;12,63059;1,26306;53,51000;1;22412;0;0;12,87962;10,06406;0,10064;10,06406
10,19734;12,75273;1,27527;53,71000;1;22412;0;0;13,00417;10,19734;0,10197;10,19734
10,33297;12,88755;1,28875;53,91000;1;22412;0;0;13,14164;10,33297;0,10333;10,33297
10,46547;13,01177;1,30118;54,11000;1;22412;0;0;13,26831;10,46547;0,10465;10,46547
10,59812;13,13310;1,31331;54,31000;1;22412;0;0;13,39204;10,59812;0,10598;10,59812
10,73187;13,25720;1,32572;54,51000;1;22412;0;0;13,51858;10,73187;0,10732;10,73187
10,86437;13,37813;1,33781;54,71000;1;22412;0;0;13,64190;10,86437;0,10864;10,86437
10,99906;13,50718;1,35072;54,91000;1;22412;0;0;13,77349;10,99906;0,10999;10,99906
11,13250;13,63076;1,36308;55,11000;1;22412;0;0;13,89951;11,13250;0,11132;11,13250
11,26594;13,74698;1,37470;55,31000;1;22412;0;0;14,01802;11,26593;0,11266;11,26594
11,39734;13,86055;1,38605;55,51000;1;22412;0;0;14,13383;11,39734;0,11397;11,39734
11,53109;13,98204;1,39820;55,71000;1;22412;0;0;14,25771;11,53109;0,11531;11,53109
11,66531;14,11257;1,41126;55,91000;1;22412;0;0;14,39082;11,66531;0,11665;11,66531
11,79890;14,23159;1,42316;56,11000;1;22412;0;0;14,51218;11,79890;0,11799;11,79890
11,93219;14,34879;1,43488;56,31000;1;22412;0;0;14,63169;11,93219;0,11932;11,93219
12,06531;14,46195;1,44619;56,51000;1;22412;0;0;14,74708;12,06531;0,12065;12,06531
12,19797;14,58169;1,45817;56,71000;1;22412;0;0;14,86919;12,19797;0,12198;12,19797
12,33172;14,70623;1,47062;56,91000;1;22412;0;0;14,99618;12,33172;0,12332;12,33172
12,46640;14,82836;1,48284;57,11000;1;22412;0;0;15,12071;12,46640;0,12466;12,46640
12,59859;14,93950;1,49395;57,31000;1;22412;0;0;15,23405;12,59859;0,12599;12,59859
12,73094;15,04856;1,50486;57,51000;1;22412;0;0;15,34526;12,73094;0,12731;12,73094
12,80094;15,10994;1,51099;57,61200;1;22412;0;0;15,40785;12,80093;0,12801;12,80094
12,75890;14,91326;1,49133;57,71400;1;22476;0;0;15,20730;12,75891;0,12759;12,75890
12,60265;14,36128;1,43613;57,91400;1;22476;0;0;14,64443;12,60265;0,12603;12,60265
12,46812;13,99697;1,39970;58,11400;1;22476;0;0;14,27294;12,46812;0,12468;12,46812
12,33469;13,68344;1,36834;58,31400;1;22476;0;0;13,95323;12,33469;0,12335;12,33469
12,19922;13,37520;1,33752;58,51400;1;22476;0;0;13,63890;12,19922;0,12199;12,19922
12,06656;13,10509;1,31051;58,71400;1;22476;0;0;13,36347;12,06656;0,12067;12,06656
11,93297;12,84744;1,28474;58,91400;1;22476;0;0;13,10074;11,93297;0,11933;11,93297
11,79953;12,60085;1,26008;59,11400;1;22476;0;0;12,84929;11,79953;0,11800;11,79953
11,66672;12,36871;1,23687;59,31400;1;22476;0;0;12,61257;11,66672;0,11667;11,66672
11,53469;12,14303;1,21430;59,51400;1;22476;0;0;12,38244;11,53469;0,11535;11,53469
11,39937;11,91920;1,19192;59,71400;1;22476;0;0;12,15420;11,39937;0,11399;11,39937
11,26515;11,70397;1,17040;59,91400;1;22476;0;0;11,93473;11,26515;0,11265;11,26515
11,13312;11,50763;1,15076;60,11400;1;22476;0;0;11,73452;11,13312;0,11133;11,13312
11,00140;11,30593;1,13059;60,31400;1;22476;0;0;11,52884;11,00140;0,11001;11,00140
10,86594;11,09973;1,10997;60,51400;1;22476;0;0;11,31858;10,86594;0,10866;10,86594
10,73359;10,90429;1,09043;60,71400;1;22476;0;0;11,11928;10,73359;0,10734;10,73359
10,59922;10,71648;1,07165;60,91400;1;22476;0;0;10,92777;10,59922;0,10599;10,59922
10,46594;10,53490;1,05349;61,11400;1;22476;0;0;10,74260;10,46594;0,10466;10,46594
10,33390;10,35438;1,03544;61,31400;1;22476;0;0;10,55853;10,33391;0,10334;10,33390
10,20047;10,16583;1,01658;61,51400;1;22476;0;0;10,36626;10,20047;0,10200;10,20047
10,06547;9,98379;0,99838;61,71400;1;22476;0;0;10,18064;10,06547;0,10065;10,06547
9,93234;9,80876;0,98088;61,91400;1;22476;0;0;10,00215;9,93234;0,09932;9,93234
9,80094;9,64038;0,96404;62,11400;1;22476;0;0;9,83045;9,80094;0,09801;9,80094
9,66656;9,46136;0,94614;62,31400;1;22476;0;0;9,64790;9,66656;0,09667;9,66656
9,53250;9,28702;0,92870;62,51400;1;22476;0;0;9,47012;9,53250;0,09532;9,53250
9,39984;9,11345;0,91135;62,71400;1;22476;0;0;9,29313;9,39984;0,09400;9,39984
9,26609;8,94227;0,89423;62,91400;1;22476;0;0;9,11858;9,26609;0,09266;9,26609
9,13250;8,78045;0,87805;63,11400;1;22476;0;0;8,95357;9,13250;0,09132;9,13250
9,00062;8,61398;0,86140;63,31400;1;22476;0;0;8,78382;9,00062;0,09001;9,00062
8,86797;8,45057;0,84506;63,51400;1;22476;0;0;8,61719;8,86797;0,08868;8,86797
8,73187;8,27780;0,82778;63,71400;1;22476;0;0;8,44101;8,73187;0,08732;8,73187
8,59984;8,11687;0,81169;63,91400;1;22476;0;0;8,27690;8,59984;0,08600;8,59984
8,46656;7,95589;0,79559;64,11401;1;22476;0;0;8,11275;8,46656;0,08467;8,46656
8,33390;7,79741;0,77974;64,31400;1;22476;0;0;7,95114;8,33390;0,08334;8,33390
8,20078;7,63159;0,76316;64,51400;1;22476;0;0;7,78206;8,20078;0,08201;8,20078
8,06719;7,46850;0,74685;64,71400;1;22476;0;0;7,61575;8,06719;0,08067;8,06719
7,93297;7,30476;0,73048;64,91400;1;22476;0;0;7,44878;7,93297;0,07933;7,93297
7,79906;7,14700;0,71470;65,11401;1;22476;0;0;7,28791;7,79906;0,07799;7,79906
7,66781;6,99039;0,69904;65,31400;1;22476;0;0;7,12821;7,66781;0,07668;7,66781
7,53375;6,83043;0,68304;65,51400;1;22476;0;0;6,96510;7,53375;0,07534;7,53375
7,39906;6,66990;0,66699;65,71401;1;22476;0;0;6,80141;7,39906;0,07399;7,39906
7,26641;6,50793;0,65079;65,91400;1;22476;0;0;6,63624;7,26641;0,07266;7,26641
7,13453;6,35547;0,63555;66,11401;1;22476;0;0;6,48077;7,13453;0,07135;7,13453
6,99953;6,19122;0,61912;66,31400;1;22476;0;0;6,31329;6,99953;0,07000;6,99953
6,86594;6,02947;0,60295;66,51400;1;22476;0;0;6,14834;6,86594;0,06866;6,86594
6,73375;5,87384;0,58738;66,71401;1;22476;0;0;5,98965;6,73375;0,06734;6,73375
6,59922;5,70728;0,57073;66,91400;1;22476;0;0;5,81981;6,59922;0,06599;6,59922
6,46578;5,54928;0,55493;67,11401;1;22476;0;0;5,65869;6,46578;0,06466;6,46578
6,33469;5,40263;0,54026;67,31400;1;22476;0;0;5,50915;6,33469;0,06335;6,33469
6,19969;5,23447;0,52345;67,51400;1;22476;0;0;5,33767;6,19969;0,06200;6,19969
6,06531;5,07415;0,50741;67,71401;1;22476;0;0;5,17419;6,06531;0,06065;6,06531
5,93312;4,91310;0,49131;67,91400;1;22476;0;0;5,00997;5,93312;0,05933;5,93312
5,80016;4,75436;0,47544;68,11401;1;22476;0;0;4,84810;5,80016;0,05800;5,80016
5,66641;4,59090;0,45909;68,31400;1;22476;0;0;4,68142;5,66641;0,05666;5,66641
5,53328;4,43219;0,44322;68,51400;1;22476;0;0;4,51958;5,53328;0,05533;5,53328
5,40031;4,27184;0,42718;68,71401;1;22476;0;0;4,35606;5,40031;0,05400;5,40031
5,26516;4,10505;0,41051;68,91400;1;22476;0;0;4,18599;5,26516;0,05265;5,26516
5,13281;3,94857;0,39486;69,11401;1;22476;0;0;4,02642;5,13281;0,05133;5,13281
5,00000;3,78788;0,37879;69,31400;1;22476;0;0;3,86256;5,00000;0,05000;5,00000
4,86687;3,62348;0,36235;69,51400;1;22476;0;0;3,69492;4,86687;0,04867;4,86687
4,73297;3,45332;0,34533;69,71401;1;22476;0;0;3,52141;4,73297;0,04733;4,73297
4,59953;3,29139;0,32914;69,91400;1;22476;0;0;3,35628;4,59953;0,04600;4,59953
4,46672;3,12958;0,31296;70,11401;1;22476;0;0;3,19128;4,46672;0,04467;4,46672
4,33266;2,96659;0,29666;70,31400;1;22476;0;0;3,02508;4,33266;0,04333;4,33266
4,20062;2,80515;0,28051;70,51400;1;22476;0;0;2,86045;4,20062;0,04201;4,20062
4,06672;2,63482;0,26348;70,71401;1;22476;0;0;2,68677;4,06672;0,04067;4,06672
3,93219;2,46182;0,24618;70,91400;1;22476;0;0;2,51035;3,93219;0,03932;3,93219
3,80016;2,30176;0,23018;71,11401;1;22476;0;0;2,34714;3,80016;0,03800;3,80016
3,66766;2,14086;0,21409;71,31400;1;22476;0;0;2,18307;3,66766;0,03668;3,66766
3,53312;1,96529;0,19653;71,51400;1;22476;0;0;2,00403;3,53312;0,03533;3,53312
3,39937;1,79678;0,17968;71,71401;1;22476;0;0;1,83220;3,39937;0,03399;3,39937
3,26703;1,63095;0,16309;71,91400;1;22476;0;0;1,66310;3,26703;0,03267;3,26703
3,13297;1,46496;0,14650;72,11401;1;22476;0;0;1,49385;3,13297;0,03133;3,13297
3,00016;1,30248;0,13025;72,31400;1;22476;0;0;1,32816;3,00016;0,03000;3,00016
2,86781;1,14011;0,11401;72,51400;1;22476;0;0;1,16258;2,86781;0,02868;2,86781
2,73281;0,97955;0,09796;72,71401;1;22476;0;0;0,99886;2,73281;0,02733;2,73281
2,59844;0,82019;0,08202;72,91400;1;22476;0;0;0,83636;2,59844;0,02598;2,59844
2,46687;0,68340;0,06834;73,11401;1;22476;0;0;0,69687;2,46687;0,02467;2,46687
2,33359;0,54409;0,05441;73,31400;1;22476;0;0;0,55482;2,33359;0,02334;2,33359
2,19953;0,41938;0,04194;73,51400;1;22476;0;0;0,42765;2,19953;0,02200;2,19953
2,06625;0,30422;0,03042;73,71401;1;22476;0;0;0,31022;2,06625;0,02066;2,06625
1,93281;0,20744;0,02074;73,91400;1;22476;0;0;0,21153;1,93281;0,01933;1,93281
1,79937;0,11863;0,01186;74,11401;1;22476;0;0;0,12097;1,79937;0,01799;1,79937
1,66703;0,04355;0,00435;74,31400;1;22476;0;0;0,04441;1,66703;0,01667;1,66703
1,53391;-0,02120;-0,00212;74,51400;1;22476;0;0;-0,02162;1,53391;0,01534;1,53391
1,39953;-0,07836;-0,00784;74,71401;1;22476;0;0;-0,07991;1,39953;0,01400;1,39953
1,26562;-0,12546;-0,01255;74,91400;1;22476;0;0;-0,12794;1,26562;0,01266;1,26562
1,13344;-0,14983;-0,01498;75,11401;1;22476;0;0;-0,15279;1,13344;0,01133;1,13344
1,00047;-0,17538;-0,01754;75,31400;1;22476;0;0;-0,17884;1,00047;0,01000;1,00047
0,86594;-0,19630;-0,01963;75,51400;1;22476;0;0;-0,20017;0,86594;0,00866;0,86594
0,73375;-0,20431;-0,02043;75,71401;1;22476;0;0;-0,20834;0,73375;0,00734;0,73375
0,60016;-0,21418;-0,02142;75,91400;1;22476;0;0;-0,21841;0,60016;0,00600;0,60016
0,46578;-0,21536;-0,02154;76,11401;1;22476;0;0;-0,21960;0,46578;0,00466;0,46578
0,33297;-0,20848;-0,02085;76,31400;1;22476;0;0;-0,21259;0,33297;0,00333;0,33297
0,20172;-0,20333;-0,02033;76,51400;1;22476;0;0;-0,20733;0,20172;0,00202;0,20172
0,06578;-0,21363;-0,02136;76,71401;1;22476;0;0;-0,21784;0,06578;0,00066;0,06578
-0,00094;-0,20337;-0,02034;76,81600;1;22476;0;0;-0,20738;-0,00094;-0,00001;-0,00094
0,03812;-0,18791;-0,01879;76,91801;2;22412;0;0;-0,19162;0,03812;0,00038;0,03812
0,19516;-0,17038;-0,01704;77,11800;2;22412;0;0;-0,17374;0,19516;0,00195;0,19516
0,33234;-0,13799;-0,01380;77,31800;2;22412;0;0;-0,14071;0,33234;0,00332;0,33234
0,46531;-0,11523;-0,01152;77,51801;2;22412;0;0;-0,11750;0,46531;0,00465;0,46531
0,59828;-0,08789;-0,00879;77,71800;2;22412;0;0;-0,08962;0,59828;0,00598;0,59828
0,73187;-0,03102;-0,00310;77,91801;2;22412;0;0;-0,03163;0,73187;0,00732;0,73187
0,86437;0,04675;0,00468;78,11800;2;22412;0;0;0,04767;0,86437;0,00864;0,86437
0,99859;0,15724;0,01572;78,31800;2;22412;0;0;0,16035;0,99859;0,00999;0,99859
1,13266;0,28813;0,02881;78,51801;2;22412;0;0;0,29381;1,13266;0,01133;1,13266
1,26562;0,44137;0,04414;78,71800;2;22412;0;0;0,45007;1,26562;0,01266;1,26562
1,39781;0,62056;0,06206;78,91801;2;22412;0;0;0,63280;1,39781;0,01398;1,39781
1,53156;0,83083;0,08308;79,11800;2;22412;0;0;0,84721;1,53156;0,01532;1,53156
1,66594;1,06660;0,10666;79,31800;2;22412;0;0;1,08763;1,66594;0,01666;1,66594
1,79859;1,30808;0,13081;79,51801;2;22412;0;0;1,33387;1,79859;0,01799;1,79859
1,93078;1,56231;0,15623;79,71800;2;22412;0;0;1,59312;1,93078;0,01931;1,93078
2,06547;1,83846;0,18385;79,91801;2;22412;0;0;1,87470;2,06547;0,02065;2,06547
2,19812;2,11896;0,21190;80,11800;2;22412;0;0;2,16074;2,19812;0,02198;2,19812
2,33141;2,39307;0,23931;80,31800;2;22412;0;0;2,44025;2,33141;0,02331;2,33141
2,46578;2,66942;0,26694;80,51801;2;22412;0;0;2,72205;2,46578;0,02466;2,46578
2,59906;2,93129;0,29313;80,71800;2;22412;0;0;2,98909;2,59906;0,02599;2,59906
2,73078;3,18119;0,31812;80,91801;2;22412;0;0;3,24391;2,73078;0,02731;2,73078
2,86547;3,43913;0,34391;81,11800;2;22412;0;0;3,50693;2,86547;0,02865;2,86547
2,99937;3,68464;0,36846;81,31800;2;22412;0;0;3,75729;2,99937;0,02999;2,99937
3,13172;3,91926;0,39193;81,51801;2;22412;0;0;3,99653;3,13172;0,03132;3,13172
3,26516;4,14638;0,41464;81,71800;2;22412;0;0;4,22813;3,26516;0,03265;3,26516
3,39891;4,37359;0,43736;81,91801;2;22412;0;0;4,45982;3,39891;0,03399;3,39891
3,53172;4,59262;0,45926;82,11800;2;22412;0;0;4,68317;3,53172;0,03532;3,53172
3,66516;4,80431;0,48043;82,31800;2;22412;0;0;4,89903;3,66516;0,03665;3,66516
3,79984;5,02042;0,50204;82,51801;2;22412;0;0;5,11941;3,79984;0,03800;3,79984
3,93172;5,22300;0,52230;82,71800;2;22412;0;0;5,32598;3,93172;0,03932;3,93172
4,06406;5,42235;0,54224;82,91801;2;22412;0;0;5,52926;4,06406;0,04064;4,06406
4,19891;5,62662;0,56266;83,11800;2;22412;0;0;5,73756;4,19891;0,04199;4,19891
4,33266;5,81967;0,58197;83,31800;2;22412;0;0;5,93441;4,33266;0,04333;4,33266
4,46516;6,01175;0,60118;83,51801;2;22412;0;0;6,13028;4,46516;0,04465;4,46516
4,59922;6,20326;0,62033;83,71800;2;22412;0;0;6,32556;4,59922;0,04599;4,59922
4,73203;6,38733;0,63873;83,91801;2;22412;0;0;6,51326;4,73203;0,04732;4,73203
4,86391;6,56971;0,65697;84,11800;2;22412;0;0;6,69924;4,86391;0,04864;4,86391
4,99781;6,75380;0,67538;84,31800;2;22412;0;0;6,88696;4,99781;0,04998;4,99781
5,13344;6,93758;0,69376;84,51801;2;22412;0;0;7,07436;5,13344;0,05133;5,13344
5,26453;7,10157;0,71016;84,71800;2;22412;0;0;7,24158;5,26453;0,05265;5,26453
5,39703;7,27235;0,72723;84,91801;2;22412;0;0;7,41573;5,39703;0,05397;5,39703
5,53234;7,45137;0,74514;85,11800;2;22412;0;0;7,59828;5,53234;0,05532;5,53234
5,66562;7,62175;0,76218;85,31800;2;22412;0;0;7,77202;5,66562;0,05666;5,66562
5,79828;7,79149;0,77915;85,51801;2;22412;0;0;7,94511;5,79828;0,05798;5,79828
5,93250;7,95589;0,79559;85,71800;2;22412;0;0;8,11275;5,93250;0,05932;5,93250
6,06469;8,11622;0,81162;85,91801;2;22412;0;0;8,27624;6,06469;0,06065;6,06469
6,19719;8,27280;0,82728;86,11800;2;22412;0;0;8,43591;6,19719;0,06197;6,19719
6,33281;8,44035;0,84403;86,31800;2;22412;0;0;8,60676;6,33281;0,06333;6,33281
6,46641;8,59622;0,85962;86,51801;2;22412;0;0;8,76570;6,46640;0,06466;6,46641
6,59781;8,74811;0,87481;86,71800;2;22412;0;0;8,92059;6,59781;0,06598;6,59781
6,73125;8,90221;0,89022;86,91801;2;22412;0;0;9,07772;6,73125;0,06731;6,73125
6,86516;9,05684;0,90568;87,11800;2;22412;0;0;9,23541;6,86516;0,06865;6,86516
6,99844;9,20990;0,92099;87,31800;2;22412;0;0;9,39149;6,99844;0,06998;6,99844
7,13266;9,36547;0,93655;87,51801;2;22412;0;0;9,55012;7,13266;0,07133;7,13266
7,26578;9,51328;0,95133;87,71800;2;22412;0;0;9,70084;7,26578;0,07266;7,26578
7,39828;9,65824;0,96582;87,91801;2;22412;0;0;9,84866;7,39828;0,07398;7,39828
7,53047;9,79847;0,97985;88,11800;2;22412;0;0;9,99166;7,53047;0,07530;7,53047
7,66594;9,94932;0,99493;88,31800;2;22412;0;0;10,14548;7,66594;0,07666;7,66594
7,79922;10,09296;1,00930;88,51801;2;22412;0;0;10,29196;7,79922;0,07799;7,79922
7,93156;10,23047;1,02305;88,71800;2;22412;0;0;10,43218;7,93156;0,07932;7,93156
8,06469;10,37217;1,03722;88,91801;2;22412;0;0;10,57667;8,06469;0,08065;8,06469
8,19969;10,51863;1,05186;89,11800;2;22412;0;0;10,72602;8,19969;0,08200;8,19969
8,33140;10,65394;1,06539;89,31800;2;22412;0;0;10,86400;8,33140;0,08331;8,33140
8,46531;10,79388;1,07939;89,51801;2;22412;0;0;11,00669;8,46531;0,08465;8,46531
8,59937;10,92812;1,09281;89,71800;2;22412;0;0;11,14358;8,59937;0,08599;8,59937
8,73062;11,05672;1,10567;89,91801;2;22412;0;0;11,27471;8,73062;0,08731;8,73062
8,86453;11,19795;1,11979;90,11800;2;22412;0;0;11,41873;8,86453;0,08865;8,86453
8,99969;11,33315;1,13332;90,31800;2;22412;0;0;11,55660;8,99969;0,09000;8,99969
9,13265;11,47023;1,14702;90,51801;2;22412;0;0;11,69638;9,13265;0,09133;9,13265
9,26422;11,59813;1,15981;90,71800;2;22412;0;0;11,82680;9,26422;0,09264;9,26422
9,39750;11,72252;1,17225;90,91801;2;22412;0;0;11,95365;9,39750;0,09397;9,39750
9,53187;11,85947;1,18595;91,11800;2;22412;0;0;12,09330;9,53187;0,09532;9,53187
9,66469;11,98617;1,19862;91,31800;2;22412;0;0;12,22249;9,66469;0,09665;9,66469
9,79937;12,12392;1,21239;91,51801;2;22412;0;0;12,36296;9,79937;0,09799;9,79937
9,93187;12,24751;1,22475;91,71800;2;22412;0;0;12,48899;9,93187;0,09932;9,93187
10,06437;12,36941;1,23694;91,91801;2;22412;0;0;12,61329;10,06437;0,10064;10,06437
10,19765;12,49825;1,24982;92,11800;2;22412;0;0;12,74466;10,19765;0,10198;10,19765
10,33297;12,63087;1,26309;92,31800;2;22412;0;0;12,87990;10,33297;0,10333;10,33297
10,46531;12,75992;1,27599;92,51801;2;22412;0;0;13,01150;10,46531;0,10465;10,46531
10,59781;12,88309;1,28831;92,71800;2;22412;0;0;13,13710;10,59781;0,10598;10,59781
10,73219;13,00682;1,30068;92,91801;2;22412;0;0;13,26327;10,73219;0,10732;10,73219
10,86422;13,13102;1,31310;93,11800;2;22412;0;0;13,38991;10,86422;0,10864;10,86422
10,99906;13,26348;1,32635;93,31800;2;22412;0;0;13,52499;10,99906;0,10999;10,99906
11,13234;13,39240;1,33924;93,51801;2;22412;0;0;13,65645;11,13234;0,11132;11,13234
11,26594;13,51383;1,35138;93,71800;2;22412;0;0;13,78027;11,26593;0,11266;11,26594
11,39765;13,63245;1,36325;93,91801;2;22412;0;0;13,90123;11,39765;0,11398;11,39765
11,53094;13,75827;1,37583;94,11800;2;22412;0;0;14,02954;11,53094;0,11531;11,53094
11,66562;13,88502;1,38850;94,31800;2;22412;0;0;14,15878;11,66562;0,11666;11,66562
11,79922;14,00923;1,40092;94,51801;2;22412;0;0;14,28544;11,79922;0,11799;11,79922
11,93203;14,12932;1,41293;94,71800;2;22412;0;0;14,40789;11,93203;0,11932;11,93203
12,06562;14,25442;1,42544;94,91801;2;22412;0;0;14,53547;12,06562;0,12066;12,06562
12,19828;14,37608;1,43761;95,11800;2;22412;0;0;14,65952;12,19828;0,12198;12,19828
12,33219;14,51062;1,45106;95,31800;2;22412;0;0;14,79671;12,33219;0,12332;12,33219
12,46609;14,62761;1,46276;95,51801;2;22412;0;0;14,91601;12,46609;0,12466;12,46609
12,59875;14,74666;1,47467;95,71800;2;22412;0;0;15,03741;12,59875;0,12599;12,59875
12,73062;14,85800;1,48580;95,91801;2;22412;0;0;15,15095;12,73062;0,12731;12,73062
12,80125;14,93253;1,49325;96,02001;2;22412;0;0;15,22694;12,80125;0,12801;12,80125
12,75859;14,73127;1,47313;96,12200;2;22476;0;0;15,02172;12,75859;0,12759;12,75859
12,60297;14,18915;1,41891;96,32201;2;22476;0;0;14,46890;12,60297;0,12603;12,60297
12,46797;13,82707;1,38271;96,52200;2;22476;0;0;14,09969;12,46797;0,12468;12,46797
12,33437;13,51046;1,35105;96,72201;2;22476;0;0;13,77683;12,33437;0,12334;12,33437
12,19890;13,20760;1,32076;96,92201;2;22476;0;0;13,46800;12,19890;0,12199;12,19890
12,06625;12,93563;1,29356;97,12200;2;22476;0;0;13,19068;12,06625;0,12066;12,06625
11,93297;12,68283;1,26828;97,32201;2;22476;0;0;12,93288;11,93297;0,11933;11,93297
11,79953;12,43805;1,24380;97,52200;2;22476;0;0;12,68328;11,79953;0,11800;11,79953
11,66656;12,20291;1,22029;97,72201;2;22476;0;0;12,44351;11,66656;0,11667;11,66656
11,53469;11,98704;1,19870;97,92201;2;22476;0;0;12,22338;11,53469;0,11535;11,53469
11,39953;11,76067;1,17607;98,12200;2;22476;0;0;11,99255;11,39953;0,11400;11,39953
11,26562;11,55031;1,15503;98,32201;2;22476;0;0;11,77803;11,26562;0,11266;11,26562
11,13344;11,34902;1,13490;98,52200;2;22476;0;0;11,57278;11,13344;0,11133;11,13344
11,00156;11,15140;1,11514;98,72201;2;22476;0;0;11,37127;11,00156;0,11002;11,00156
10,86578;10,94145;1,09414;98,92201;2;22476;0;0;11,15717;10,86578;0,10866;10,86578
10,73344;10,74879;1,07488;99,12200;2;22476;0;0;10,96072;10,73344;0,10733;10,73344
10,59937;10,56211;1,05621;99,32201;2;22476;0;0;10,77036;10,59937;0,10599;10,59937
10,46562;10,37582;1,03758;99,52200;2;22476;0;0;10,58039;10,46562;0,10466;10,46562
10,33390;10,19646;1,01965;99,72201;2;22476;0;0;10,39750;10,33391;0,10334;10,33390
10,20031;10,01288;1,00129;99,92201;2;22476;0;0;10,21029;10,20031;0,10200;10,20031
10,06547;9,82479;0,98248;100,12200;2;22476;0;0;10,01850;10,06547;0,10065;10,06547
9,93234;9,65264;0,96526;100,32201;2;22476;0;0;9,84295;9,93234;0,09932;9,93234
9,80078;9,48462;0,94846;100,52200;2;22476;0;0;9,67162;9,80078;0,09801;9,80078
9,66703;9,30884;0,93088;100,72201;2;22476;0;0;9,49237;9,66703;0,09667;9,66703
9,53281;9,12922;0,91292;100,92201;2;22476;0;0;9,30921;9,53281;0,09533;9,53281
9,40000;8,96239;0,89624;101,12200;2;22476;0;0;9,13909;9,40000;0,09400;9,40000
9,26578;8,78886;0,87889;101,32201;2;22476;0;0;8,96215;9,26578;0,09266;9,26578
9,13234;8,62511;0,86251;101,52200;2;22476;0;0;8,79517;9,13234;0,09132;9,13234
9,00094;8,46070;0,84607;101,72201;2;22476;0;0;8,62751;9,00094;0,09001;9,00094
8,86797;8,29834;0,82983;101,92201;2;22476;0;0;8,46195;8,86797;0,08868;8,86797
8,73234;8,12229;0,81223;102,12200;2;22476;0;0;8,28243;8,73234;0,08732;8,73234
8,59922;7,96040;0,79604;102,32201;2;22476;0;0;8,11735;8,59922;0,08599;8,59922
8,46672;7,80012;0,78001;102,52200;2;22476;0;0;7,95391;8,46672;0,08467;8,46672
8,33359;7,64215;0,76422;102,72201;2;22476;0;0;7,79283;8,33359;0,08334;8,33359
8,20062;7,48184;0,74818;102,92201;2;22476;0;0;7,62935;8,20062;0,08201;8,20062
8,06687;7,31644;0,73164;103,12200;2;22476;0;0;7,46070;8,06687;0,08067;8,06687
7,93281;7,14594;0,71459;103,32201;2;22476;0;0;7,28683;7,93281;0,07933;7,93281
7,79906;6,99217;0,69922;103,52200;2;22476;0;0;7,13003;7,79906;0,07799;7,79906
7,66781;6,83921;0,68392;103,72201;2;22476;0;0;6,97406;7,66781;0,07668;7,66781
7,53359;6,68079;0,66808;103,92201;2;22476;0;0;6,81251;7,53359;0,07534;7,53359
7,39891;6,51352;0,65135;104,12200;2;22476;0;0;6,64194;7,39890;0,07399;7,39891
7,26609;6,35279;0,63528;104,32201;2;22476;0;0;6,47805;7,26609;0,07266;7,26609
7,13406;6,19541;0,61954;104,52200;2;22476;0;0;6,31756;7,13406;0,07134;7,13406
7,00047;6,03921;0,60392;104,72201;2;22476;0;0;6,15828;7,00047;0,07000;7,00047
6,86547;5,87336;0,58734;104,92201;2;22476;0;0;5,98916;6,86547;0,06865;6,86547
6,73391;5,71855;0,57186;105,12200;2;22476;0;0;5,83130;6,73391;0,06734;6,73391
6,59922;5,55605;0,55561;105,32201;2;22476;0;0;5,66560;6,59922;0,06599;6,59922
6,46562;5,39673;0,53967;105,52200;2;22476;0;0;5,50313;6,46562;0,06466;6,46562
6,33469;5,24604;0,52460;105,72201;2;22476;0;0;5,34947;6,33469;0,06335;6,33469
6,19953;5,08079;0,50808;105,92201;2;22476;0;0;5,18096;6,19953;0,06200;6,19953
6,06547;4,91684;0,49168;106,12200;2;22476;0;0;5,01378;6,06547;0,06065;6,06547
5,93312;4,75887;0,47589;106,32201;2;22476;0;0;4,85269;5,93312;0,05933;5,93312
5,80000;4,60362;0,46036;106,52200;2;22476;0;0;4,69438;5,80000;0,05800;5,80000
5,66625;4,43685;0,44369;106,72201;2;22476;0;0;4,52433;5,66625;0,05666;5,66625
5,53406;4,27970;0,42797;106,92201;2;22476;0;0;4,36408;5,53406;0,05534;5,53406
5,40016;4,11675;0,41168;107,12200;2;22476;0;0;4,19792;5,40016;0,05400;5,40016
5,26516;3,95013;0,39501;107,32201;2;22476;0;0;4,02801;5,26516;0,05265;5,26516
5,13266;3,79544;0,37954;107,52200;2;22476;0;0;3,87027;5,13266;0,05133;5,13266
5,00031;3,63860;0,36386;107,72201;2;22476;0;0;3,71034;5,00031;0,05000;5,00031
4,86703;3,46650;0,34665;107,92201;2;22476;0;0;3,53484;4,86703;0,04867;4,86703
4,73281;3,29705;0,32970;108,12200;2;22476;0;0;3,36205;4,73281;0,04733;4,73281
4,60000;3,13948;0,31395;108,32201;2;22476;0;0;3,20138;4,60000;0,04600;4,60000
4,46641;2,97633;0,29763;108,52200;2;22476;0;0;3,03501;4,46641;0,04466;4,46641
4,33328;2,81560;0,28156;108,72201;2;22476;0;0;2,87111;4,33328;0,04333;4,33328
4,20062;2,64828;0,26483;108,92201;2;22476;0;0;2,70050;4,20062;0,04201;4,20062
4,06703;2,48070;0,24807;109,12200;2;22476;0;0;2,52961;4,06703;0,04067;4,06703
3,93203;2,30613;0,23061;109,32201;2;22476;0;0;2,35160;3,93203;0,03932;3,93203
3,80016;2,14745;0,21474;109,52200;2;22476;0;0;2,18979;3,80016;0,03800;3,80016
3,66797;1,98197;0,19820;109,72201;2;22476;0;0;2,02105;3,66797;0,03668;3,66797
3,53328;1,81314;0,18131;109,92201;2;22476;0;0;1,84888;3,53328;0,03533;3,53328
3,39922;1,64217;0,16422;110,12200;2;22476;0;0;1,67454;3,39922;0,03399;3,39922
3,26719;1,48263;0,14826;110,32201;2;22476;0;0;1,51186;3,26719;0,03267;3,26719
3,13281;1,31649;0,13165;110,52200;2;22476;0;0;1,34245;3,13281;0,03133;3,13281
2,99984;1,15415;0,11541;110,72201;2;22476;0;0;1,17690;2,99984;0,03000;2,99984
2,86781;1,00297;0,10030;110,92201;2;22476;0;0;1,02274;2,86781;0,02868;2,86781
2,73312;0,83724;0,08372;111,12200;2;22476;0;0;0,85374;2,73312;0,02733;2,73312
2,59859;0,68821;0,06882;111,32201;2;22476;0;0;0,70178;2,59859;0,02599;2,59859
2,46703;0,56153;0,05615;111,52200;2;22476;0;0;0,57260;2,46703;0,02467;2,46703
2,33344;0,43835;0,04383;111,72201;2;22476;0;0;0,44699;2,33344;0,02333;2,33344
2,19937;0,31781;0,03178;111,92201;2;22476;0;0;0,32408;2,19937;0,02199;2,19937
2,06625;0,21882;0,02188;112,12200;2;22476;0;0;0,22314;2,06625;0,02066;2,06625
1,93312;0,13519;0,01352;112,32201;2;22476;0;0;0,13785;1,93312;0,01933;1,93312
1,79891;0,05254;0,00525;112,52200;2;22476;0;0;0,05357;1,79891;0,01799;1,79891
1,66656;-0,01672;-0,00167;112,72201;2;22476;0;0;-0,01705;1,66656;0,01667;1,66656
1,53437;-0,06726;-0,00673;112,92201;2;22476;0;0;-0,06859;1,53437;0,01534;1,53437
1,39969;-0,11293;-0,01129;113,12200;2;22476;0;0;-0,11515;1,39969;0,01400;1,39969
1,26547;-0,14908;-0,01491;113,32201;2;22476;0;0;-0,15202;1,26547;0,01265;1,26547
1,13344;-0,16844;-0,01684;113,52200;2;22476;0;0;-0,17176;1,13344;0,01133;1,13344
1,00047;-0,18767;-0,01877;113,72201;2;22476;0;0;-0,19137;1,00047;0,01000;1,00047
0,86609;-0,20175;-0,02017;113,92201;2;22476;0;0;-0,20572;0,86609;0,00866;0,86609
0,73359;-0,21093;-0,02109;114,12200;2;22476;0;0;-0,21509;0,73359;0,00734;0,73359
0,59984;-0,21165;-0,02116;114,32201;2;22476;0;0;-0,21582;0,59984;0,00600;0,59984
0,46578;-0,20818;-0,02082;114,52200;2;22476;0;0;-0,21229;0,46578;0,00466;0,46578
0,33359;-0,20338;-0,02034;114,72201;2;22476;0;0;-0,20739;0,33359;0,00334;0,33359
0,20156;-0,20066;-0,02007;114,92201;2;22476;0;0;-0,20461;0,20156;0,00202;0,20156
0,06547;-0,20667;-0,02067;115,12201;2;22476;0;0;-0,21074;0,06547;0,00065;0,06547
-0,00094;-0,19582;-0,01958;115,22401;2;22476;0;0;-0,19969;-0,00094;-0,00001;-0,00094
-0,00234;-0,19658;-0,01966;115,22601;3;22412;0;0;-0,20045;-0,00234;-0,00002;-0,00234