File: Test Data/Hole/Tensile Data/data.csv
Déplacement;Charge;Contrainte de traction;Temps;Nbre de cycles;ID de segment;Données marquées;Nombre de marques;Ténacité;Déplacement de traction;Déformation de traction;Position corrigée
(mm);(N);(MPa);(sec);;;;;(gf/tex);(mm);(mm/mm);(mm)
0,00000;0,43294;0,04329;0,00000;0;5;0;0;0,44148;0,00000;0,00000;0,00000
0,00000;0,43171;0,04317;0,00400;0;22412;0;0;0,44022;0,00000;0,00000;0,00000
0,32859;1,14570;0,11457;0,20400;0;22412;0;0;1,16829;0,32859;0,00329;0,32859
0,66672;1,87136;0,18714;0,40400;0;22412;0;0;1,90826;0,66672;0,00667;0,66672
0,99891;2,59082;0,25908;0,60400;0;22412;0;0;2,64190;0,99891;0,00999;0,99891
1,33359;3,29265;0,32927;0,80400;0;22412;0;0;3,35757;1,33359;0,01334;1,33359
1,66719;3,95450;0,39545;1,00400;0;22412;0;0;4,03247;1,66719;0,01667;1,66719
2,00000;4,57930;0,45793;1,20400;0;22412;0;0;4,66959;2,00000;0,02000;2,00000
2,33359;5,16560;0,51656;1,40400;0;22412;0;0;5,26744;2,33359;0,02334;2,33359
2,66656;5,73408;0,57341;1,60400;0;22412;0;0;5,84713;2,66656;0,02667;2,66656
3,00047;6,28019;0,62802;1,80400;0;22412;0;0;6,40401;3,00047;0,03000;3,00047
3,33422;6,79840;0,67984;2,00400;0;22412;0;0;6,93244;3,33422;0,03334;3,33422
3,66656;7,29555;0,72955;2,20400;0;22412;0;0;7,43939;3,66656;0,03667;3,66656
4,00031;7,78474;0,77847;2,40400;0;22412;0;0;7,93823;4,00031;0,04000;4,00031
4,33328;8,25515;0,82552;2,60400;0;22412;0;0;8,41791;4,33328;0,04333;4,33328
4,66656;8,71142;0,87114;2,80400;0;22412;0;0;8,88317;4,66656;0,04667;4,66656
5,00062;9,15740;0,91574;3,00400;0;22412;0;0;9,33795;5,00062;0,05001;5,00062
5,33266;9,58853;0,95885;3,20400;0;22412;0;0;9,77758;5,33266;0,05333;5,33266
5,66703;10,00412;1,00041;3,40400;0;22412;0;0;10,20137;5,66703;0,05667;5,66703
5,99969;10,41077;1,04108;3,60400;0;22412;0;0;10,61603;5,99969;0,06000;5,99969
6,33328;10,80606;1,08061;3,80400;0;22412;0;0;11,01912;6,33328;0,06333;6,33328
6,66656;11,18255;1,11825;4,00400;0;22412;0;0;11,40302;6,66656;0,06667;6,66656
6,99922;11,55507;1,15551;4,20400;0;22412;0;0;11,78289;6,99922;0,06999;6,99922
7,33391;11,90249;1,19025;4,40400;0;22412;0;0;12,13716;7,33391;0,07334;7,33391
7,66703;12,23865;1,22386;4,60400;0;22412;0;0;12,47995;7,66703;0,07667;7,66703
8,00047;12,56309;1,25631;4,80400;0;22412;0;0;12,81078;8,00047;0,08000;8,00047
8,33375;12,87968;1,28797;5,00400;0;22412;0;0;13,13362;8,33375;0,08334;8,33375
8,66531;13,18726;1,31873;5,20400;0;22412;0;0;13,44726;8,66531;0,08665;8,66531
9,00047;13,48715;1,34871;5,40400;0;22412;0;0;13,75307;9,00047;0,09000;9,00047
9,33312;13,77826;1,37783;5,60400;0;22412;0;0;14,04992;9,33312;0,09333;9,33312
9,66672;14,06690;1,40669;5,80400;0;22412;0;0;14,34425;9,66672;0,09667;9,66672
10,00031;14,34599;1,43460;6,00400;0;22412;0;0;14,62884;10,00031;0,10000;10,00031
10,33281;14,62486;1,46249;6,20400;0;22412;0;0;14,91320;10,33281;0,10333;10,33281
10,66656;14,88630;1,48863;6,40400;0;22412;0;0;15,17981;10,66656;0,10667;10,66656
10,99984;15,14337;1,51434;6,60400;0;22412;0;0;15,44194;10,99984;0,11000;10,99984
11,33344;15,40325;1,54033;6,80400;0;22412;0;0;15,70695;11,33344;0,11333;11,33344
11,66656;15,65564;1,56556;7,00400;0;22412;0;0;15,96431;11,66656;0,11667;11,66656
12,00062;15,89595;1,58960;7,20400;0;22412;0;0;16,20936;12,00062;0,12001;12,00062
12,33328;16,13211;1,61321;7,40400;0;22412;0;0;16,45017;12,33328;0,12333;12,33328
12,66687;16,36748;1,63675;7,60400;0;22412;0;0;16,69018;12,66687;0,12667;12,66687
13,00000;16,59845;1,65985;7,80400;0;22412;0;0;16,92571;13,00000;0,13000;13,00000
13,33359;16,82467;1,68247;8,00400;0;22412;0;0;17,15639;13,33359;0,13334;13,33359
13,66656;17,04913;1,70491;8,20400;0;22412;0;0;17,38528;13,66656;0,13667;13,66656
13,99953;17,24572;1,72457;8,40400;0;22412;0;0;17,58574;13,99953;0,14000;13,99953
14,33359;17,46017;1,74602;8,60400;0;22412;0;0;17,80442;14,33359;0,14334;14,33359
14,66672;17,67615;1,76762;8,80400;0;22412;0;0;18,02466;14,66672;0,14667;14,66672
15,00000;17,87798;1,78780;9,00400;0;22412;0;0;18,23047;15,00000;0,15000;15,00000
15,33312;18,08459;1,80846;9,20400;0;22412;0;0;18,44115;15,33312;0,15333;15,33312
15,66656;18,28149;1,82815;9,40400;0;22412;0;0;18,64193;15,66656;0,15667;15,66656
15,99984;18,48168;1,84817;9,60400;0;22412;0;0;18,84607;15,99984;0,16000;15,99984
16,33218;18,66674;1,86667;9,80400;0;22412;0;0;19,03478;16,33219;0,16332;16,33218
16,66687;18,85732;1,88573;10,00400;0;22412;0;0;19,22912;16,66687;0,16667;16,66687
17,00015;19,00901;1,90090;10,20400;0;22412;0;0;19,38379;17,00015;0,17000;17,00015
17,33375;19,19744;1,91974;10,40400;0;22412;0;0;19,57594;17,33375;0,17334;17,33375
17,66672;19,37216;1,93722;10,60400;0;22412;0;0;19,75411;17,66672;0,17667;17,66672
18,00031;19,55211;1,95521;10,80400;0;22412;0;0;19,93760;18,00031;0,18000;18,00031
18,33359;19,73452;1,97345;11,00400;0;22412;0;0;20,12361;18,33359;0,18334;18,33359
18,66687;19,90400;1,99040;11,20400;0;22412;0;0;20,29643;18,66687;0,18667;18,66687
19,00015;20,07472;2,00747;11,40400;0;22412;0;0;20,47052;19,00015;0,19000;19,00015
19,33375;20,23991;2,02399;11,60400;0;22412;0;0;20,63896;19,33375;0,19334;19,33375
19,66671;20,40248;2,04025;11,80400;0;22412;0;0;20,80474;19,66671;0,19667;19,66671
19,99968;20,56740;2,05674;12,00400;0;22412;0;0;20,97292;19,99969;0,20000;19,99968
20,33328;20,70309;2,07031;12,20400;0;22412;0;0;21,11127;20,33328;0,20333;20,33328
20,66734;20,87860;2,08786;12,40400;0;22412;0;0;21,29024;20,66734;0,20667;20,66734
21,00000;21,03521;2,10352;12,60400;0;22412;0;0;21,44995;21,00000;0,21000;21,00000
21,33343;21,20733;2,12073;12,80400;0;22412;0;0;21,62545;21,33343;0,21333;21,33343
21,66656;21,37270;2,13727;13,00400;0;22412;0;0;21,79409;21,66656;0,21667;21,66656
21,99968;21,53373;2,15337;13,20400;0;22412;0;0;21,95829;21,99968;0,22000;21,99968
22,33422;21,69916;2,16992;13,40400;0;22412;0;0;22,12699;22,33422;0,22334;22,33422
22,66703;21,85430;2,18543;13,60400;0;22412;0;0;22,28519;22,66703;0,22667;22,66703
23,00015;22,00917;2,20092;13,80400;0;22412;0;0;22,44311;23,00015;0,23000;23,00015
23,33359;22,16697;2,21670;14,00400;0;22412;0;0;22,60402;23,33359;0,23334;23,33359
23,66703;22,28878;2,22888;14,20400;0;22412;0;0;22,72823;23,66703;0,23667;23,66703
23,99922;22,44657;2,24466;14,40400;0;22412;0;0;22,88914;23,99922;0,23999;23,99922
24,33406;22,60349;2,26035;14,60400;0;22412;0;0;23,04915;24,33406;0,24334;24,33406
24,66656;22,75029;2,27503;14,80400;0;22412;0;0;23,19884;24,66656;0,24667;24,66656
25,00015;22,89850;2,28985;15,00400;0;22412;0;0;23,34997;25,00015;0,25000;25,00015
25,33312;23,04473;2,30447;15,20400;0;22412;0;0;23,49908;25,33312;0,25333;25,33312
25,66718;23,18905;2,31891;15,40400;0;22412;0;0;23,64625;25,66718;0,25667;25,66718
26,00031;23,32817;2,33282;15,60400;0;22412;0;0;23,78811;26,00031;0,26000;26,00031
26,33343;23,45798;2,34580;15,80400;0;22412;0;0;23,92048;26,33343;0,26333;26,33343
26,66640;23,61631;2,36163;16,00400;0;22412;0;0;24,08193;26,66640;0,26666;26,66640
27,00031;23,76173;2,37617;16,20400;0;22412;0;0;24,23022;27,00031;0,27000;27,00031
27,33422;23,89986;2,38999;16,40400;0;22412;0;0;24,37107;27,33422;0,27334;27,33422
27,66687;23,99349;2,39935;16,60400;0;22412;0;0;24,46655;27,66687;0,27667;27,66687
28,00000;24,12480;2,41248;16,80400;0;22412;0;0;24,60045;28,00000;0,28000;28,00000
28,33343;24,26597;2,42660;17,00400;0;22412;0;0;24,74441;28,33344;0,28333;28,33343
28,66672;24,39918;2,43992;17,20400;0;22412;0;0;24,88024;28,66672;0,28667;28,66672
29,00015;24,52398;2,45240;17,40400;0;22412;0;0;25,00751;29,00015;0,29000;29,00015
29,33390;24,65999;2,46600;17,60400;0;22412;0;0;25,14619;29,33390;0,29334;29,33390
29,66640;24,79699;2,47970;17,80400;0;22412;0;0;25,28589;29,66640;0,29666;29,66640
30,00000;24,92231;2,49223;18,00400;0;22412;0;0;25,41368;30,00000;0,30000;30,00000
30,33312;25,05802;2,50580;18,20400;0;22412;0;0;25,55207;30,33312;0,30333;30,33312
30,66687;25,18977;2,51898;18,40400;0;22412;0;0;25,68642;30,66687;0,30667;30,66687
31,00015;25,31678;2,53168;18,60400;0;22412;0;0;25,81593;31,00015;0,31000;31,00015
31,33343;25,44595;2,54460;18,80400;0;22412;0;0;25,94765;31,33343;0,31333;31,33343
31,66578;25,57089;2,55709;19,00400;0;22412;0;0;26,07505;31,66578;0,31666;31,66578
32,00031;25,68295;2,56830;19,20400;0;22412;0;0;26,18932;32,00031;0,32000;32,00031
32,33359;25,77556;2,57756;19,40400;0;22412;0;0;26,28375;32,33359;0,32334;32,33359
32,66671;25,90215;2,59022;19,60400;0;22412;0;0;26,41284;32,66671;0,32667;32,66671
32,99999;26,03604;2,60360;19,80400;0;22412;0;0;26,54938;32,99999;0,33000;32,99999
33,33328;26,16536;2,61654;20,00400;0;22412;0;0;26,68124;33,33327;0,33333;33,33328
33,66718;26,29761;2,62976;20,20400;0;22412;0;0;26,81610;33,66718;0,33667;33,66718
33,99999;26,42319;2,64232;20,40400;0;22412;0;0;26,94416;34,00000;0,34000;33,99999
34,33312;26,54869;2,65487;20,60400;0;22412;0;0;27,07213;34,33312;0,34333;34,33312
34,66656;26,67651;2,66765;20,80400;0;22412;0;0;27,20247;34,66656;0,34667;34,66656
35,00031;26,76067;2,67607;21,00400;0;22412;0;0;27,28829;35,00031;0,35000;35,00031
35,33296;26,88126;2,68813;21,20400;0;22412;0;0;27,41125;35,33296;0,35333;35,33296
35,66656;27,01472;2,70147;21,40400;0;22412;0;0;27,54735;35,66655;0,35667;35,66656
35,99953;27,13608;2,71361;21,60400;0;22412;0;0;27,67110;35,99953;0,36000;35,99953
36,33327;27,26813;2,72681;21,80400;0;22412;0;0;27,80576;36,33327;0,36333;36,33327
36,66703;27,39914;2,73991;22,00400;0;22412;0;0;27,93934;36,66703;0,36667;36,66703
37,00031;27,52416;2,75242;22,20400;0;22412;0;0;28,06683;37,00031;0,37000;37,00031
37,33328;27,64911;2,76491;22,40400;0;22412;0;0;28,19424;37,33327;0,37333;37,33328
37,66624;27,74009;2,77401;22,60400;0;22412;0;0;28,28702;37,66624;0,37666;37,66624
38,00000;27,86656;2,78666;22,80400;0;22412;0;0;28,41598;38,00000;0,38000;38,00000
38,33327;27,99351;2,79935;23,00400;0;22412;0;0;28,54544;38,33327;0,38333;38,33327
38,66702;28,11870;2,81187;23,20400;0;22412;0;0;28,67309;38,66702;0,38667;38,66702
38,99984;28,25095;2,82510;23,40400;0;22412;0;0;28,80795;38,99984;0,39000;38,99984
39,33187;28,36268;2,83627;23,60400;0;22412;0;0;28,92188;39,33187;0,39332;39,33187
39,66703;28,45861;2,84586;23,80400;0;22412;0;0;29,01971;39,66703;0,39667;39,66703
39,99999;28,59116;2,85912;24,00400;0;22412;0;0;29,15487;39,99999;0,40000;39,99999
40,33327;28,71924;2,87192;24,20400;0;22412;0;0;29,28548;40,33327;0,40333;40,33327
40,66655;28,84537;2,88454;24,40400;0;22412;0;0;29,41409;40,66655;0,40667;40,66655
40,99952;28,97347;2,89735;24,60400;0;22412;0;0;29,54472;40,99952;0,41000;40,99952
41,33359;29,09690;2,90969;24,80400;0;22412;0;0;29,67058;41,33359;0,41334;41,33359
41,66687;29,22111;2,92211;25,00400;0;22412;0;0;29,79724;41,66687;0,41667;41,66687
42,00015;29,34712;2,93471;25,20400;0;22412;0;0;29,92574;42,00015;0,42000;42,00015
42,33374;29,48150;2,94815;25,40400;0;22412;0;0;30,06277;42,33374;0,42334;42,33374
42,66640;29,60372;2,96037;25,60400;0;22412;0;0;30,18739;42,66640;0,42666;42,66640
43,00046;29,69477;2,96948;25,80400;0;22412;0;0;30,28024;43,00046;0,43000;43,00046
43,33343;29,81324;2,98132;26,00400;0;22412;0;0;30,40105;43,33343;0,43333;43,33343
43,66718;29,94313;2,99431;26,20400;0;22412;0;0;30,53349;43,66718;0,43667;43,66718
43,99984;30,07492;3,00749;26,40400;0;22412;0;0;30,66788;43,99984;0,44000;43,99984
44,33374;30,20312;3,02031;26,60400;0;22412;0;0;30,79861;44,33374;0,44334;44,33374
44,66671;30,33015;3,03301;26,80400;0;22412;0;0;30,92814;44,66671;0,44667;44,66671
45,00031;30,45886;3,04589;27,00400;0;22412;0;0;31,05939;45,00031;0,45000;45,00031
45,33327;30,59054;3,05905;27,20400;0;22412;0;0;31,19367;45,33327;0,45333;45,33327
45,66640;30,69828;3,06983;27,40400;0;22412;0;0;31,30354;45,66640;0,45666;45,66640
45,99999;30,82778;3,08278;27,60400;0;22412;0;0;31,43559;45,99999;0,46000;45,99999
46,33421;30,95978;3,09598;27,80400;0;22412;0;0;31,57019;46,33421;0,46334;46,33421
46,66687;31,09185;3,10919;28,00400;0;22412;0;0;31,70486;46,66687;0,46667;46,66687
46,99937;31,20882;3,12088;28,20400;0;22412;0;0;31,82414;46,99937;0,46999;46,99937
47,33359;31,31389;3,13139;28,40400;0;22412;0;0;31,93128;47,33359;0,47334;47,33359
47,66656;31,44727;3,14473;28,60400;0;22412;0;0;32,06729;47,66656;0,47667;47,66656
48,00062;31,57941;3,15794;28,80400;0;22412;0;0;32,20204;48,00062;0,48001;48,00062
48,33343;31,71282;3,17128;29,00400;0;22412;0;0;32,33808;48,33343;0,48333;48,33343
48,66702;31,85367;3,18537;29,20400;0;22412;0;0;32,48170;48,66703;0,48667;48,66702
48,99953;31,98677;3,19868;29,40400;0;22412;0;0;32,61742;48,99953;0,49000;48,99953
49,33374;32,11844;3,21184;29,60400;0;22412;0;0;32,75170;49,33374;0,49334;49,33374
49,66656;32,25438;3,22544;29,80400;0;22412;0;0;32,89032;49,66656;0,49667;49,66656
50,00062;32,39371;3,23937;30,00400;0;22412;0;0;33,03239;50,00062;0,50001;50,00062
50,33312;32,49443;3,24944;30,20400;0;22412;0;0;33,13510;50,33312;0,50333;50,33312
50,66624;32,64781;3,26478;30,40400;0;22412;0;0;33,29150;50,66624;0,50666;50,66624
50,99984;32,78468;3,27847;30,60400;0;22412;0;0;33,43107;50,99983;0,51000;50,99984
51,33374;32,93296;3,29330;30,80400;0;22412;0;0;33,58227;51,33374;0,51334;51,33374
51,66671;33,06389;3,30639;31,00400;0;22412;0;0;33,71578;51,66671;0,51667;51,66671
52,00031;33,19826;3,31983;31,20400;0;22412;0;0;33,85281;52,00031;0,52000;52,00031
52,33327;33,34412;3,33441;31,40400;0;22412;0;0;34,00154;52,33327;0,52333;52,33327
52,66687;33,40089;3,34009;31,60400;0;22412;0;0;34,05943;52,66687;0,52667;52,66687
52,99984;33,54137;3,35414;31,80400;0;22412;0;0;34,20268;52,99984;0,53000;52,99984
53,33374;33,69079;3,36908;32,00400;0;22412;0;0;34,35504;53,33375;0,53334;53,33374
53,66687;33,83255;3,38326;32,20400;0;22412;0;0;34,49960;53,66687;0,53667;53,66687
53,99968;33,99499;3,39950;32,40400;0;22412;0;0;34,66524;53,99968;0,54000;53,99968
54,33343;34,13911;3,41391;32,60400;0;22412;0;0;34,81220;54,33343;0,54333;54,33343
54,66593;34,28722;3,42872;32,80400;0;22412;0;0;34,96323;54,66593;0,54666;54,66593
55,00062;34,44865;3,44487;33,00400;0;22412;0;0;35,12785;55,00061;0,55001;55,00062
55,33312;34,59410;3,45941;33,20400;0;22412;0;0;35,27616;55,33312;0,55333;55,33312
55,66655;34,73909;3,47391;33,40400;0;22412;0;0;35,42401;55,66655;0,55667;55,66655
55,99952;34,89231;3,48923;33,60400;0;22412;0;0;35,58026;55,99952;0,56000;55,99952
56,33343;35,05290;3,50529;33,80400;0;22412;0;0;35,74401;56,33343;0,56333;56,33343
56,66687;35,20502;3,52050;34,00400;0;22412;0;0;35,89913;56,66687;0,56667;56,66687
57,00062;35,34019;3,53402;34,20400;0;22412;0;0;36,03697;57,00062;0,57001;57,00062
57,33328;35,50952;3,55095;34,40400;0;22412;0;0;36,20963;57,33328;0,57333;57,33328
57,66702;35,66428;3,56643;34,60400;0;22412;0;0;36,36744;57,66702;0,57667;57,66702
57,99984;35,82649;3,58265;34,80400;0;22412;0;0;36,53286;57,99984;0,58000;57,99984
58,33390;35,98878;3,59888;35,00400;0;22412;0;0;36,69834;58,33390;0,58334;58,33390
58,66702;36,15493;3,61549;35,20400;0;22412;0;0;36,86776;58,66702;0,58667;58,66702
58,99952;36,30581;3,63058;35,40400;0;22412;0;0;37,02162;58,99953;0,59000;58,99952
59,33390;36,48385;3,64839;35,60400;0;22412;0;0;37,20318;59,33390;0,59334;59,33390
59,66671;36,65261;3,66526;35,80400;0;22412;0;0;37,37526;59,66671;0,59667;59,66671
60,00030;36,82334;3,68233;36,00400;0;22412;0;0;37,54936;60,00031;0,60000;60,00030
60,33312;36,95161;3,69516;36,20400;0;22412;0;0;37,68015;60,33312;0,60333;60,33312
60,66671;36,98355;3,69836;36,40400;0;22412;0;0;37,71273;60,66671;0,60667;60,66671
60,99952;37,16831;3,71683;36,60400;0;22412;0;0;37,90113;60,99952;0,61000;60,99952
61,33359;37,36025;3,73603;36,80400;0;22412;0;0;38,09686;61,33358;0,61334;61,33359
61,66687;37,52320;3,75232;37,00400;0;22412;0;0;38,26301;61,66687;0,61667;61,66687
62,00030;37,71517;3,77152;37,20400;0;22412;0;0;38,45877;62,00031;0,62000;62,00030
62,33234;37,89764;3,78976;37,40400;0;22412;0;0;38,64483;62,33234;0,62332;62,33234
62,66718;38,08586;3,80859;37,60400;0;22412;0;0;38,83677;62,66718;0,62667;62,66718
62,99983;38,27270;3,82727;37,80400;0;22412;0;0;39,02730;62,99983;0,63000;62,99983
63,33389;38,46385;3,84639;38,00400;0;22412;0;0;39,22222;63,33389;0,63334;63,33389
63,66702;38,64798;3,86480;38,20400;0;22412;0;0;39,40997;63,66702;0,63667;63,66702
63,99999;38,84245;3,88424;38,40400;0;22412;0;0;39,60827;63,99999;0,64000;63,99999
64,33358;39,04463;3,90446;38,60400;0;22412;0;0;39,81445;64,33358;0,64334;64,33358
64,66670;39,24075;3,92408;38,80400;0;22412;0;0;40,01443;64,66670;0,64667;64,66670
65,00015;39,44273;3,94427;39,00400;0;22412;0;0;40,22039;65,00014;0,65000;65,00015
65,33374;39,63697;3,96370;39,20400;0;22412;0;0;40,41846;65,33374;0,65334;65,33374
65,66671;39,76950;3,97695;39,40400;0;22412;0;0;40,55361;65,66670;0,65667;65,66671
65,99983;39,95614;3,99561;39,60400;0;22412;0;0;40,74392;65,99982;0,66000;65,99983
66,33358;40,16200;4,01620;39,80400;0;22412;0;0;40,95384;66,33359;0,66334;66,33358
66,66639;40,35500;4,03550;40,00400;0;22412;0;0;41,15065;66,66640;0,66666;66,66639
67,00077;40,58321;4,05832;40,20400;0;22412;0;0;41,38336;67,00077;0,67001;67,00077
67,33342;40,79628;4,07963;40,40400;0;22412;0;0;41,60063;67,33342;0,67333;67,33342
67,66655;41,01142;4,10114;40,60400;0;22412;0;0;41,82001;67,66655;0,67667;67,66655
68,00015;41,22942;4,12294;40,80400;0;22412;0;0;42,04231;68,00014;0,68000;68,00015
68,33296;41,44375;4,14437;41,00400;0;22412;0;0;42,26086;68,33295;0,68333;68,33296
68,66733;41,66500;4,16650;41,20400;0;22412;0;0;42,48647;68,66733;0,68667;68,66733
68,99983;41,89101;4,18910;41,40400;0;22412;0;0;42,71694;68,99983;0,69000;68,99983
69,33343;42,10920;4,21092;41,60400;0;22412;0;0;42,93943;69,33343;0,69333;69,33343
69,66686;42,34710;4,23471;41,80400;0;22412;0;0;43,18203;69,66686;0,69667;69,66686
69,99873;42,56783;4,25678;42,00400;0;22412;0;0;43,40711;69,99873;0,69999;69,99873
70,33420;42,81290;4,28129;42,20400;0;22412;0;0;43,65701;70,33421;0,70334;70,33420
70,66655;43,04691;4,30469;42,40400;0;22412;0;0;43,89563;70,66655;0,70667;70,66655
71,00014;43,29230;4,32923;42,60400;0;22412;0;0;44,14586;71,00014;0,71000;71,00014
71,33327;43,37087;4,33709;42,80400;0;22412;0;0;44,22598;71,33327;0,71333;71,33327
71,66624;43,62729;4,36273;43,00400;0;22412;0;0;44,48745;71,66624;0,71666;71,66624
72,00062;43,88006;4,38801;43,20400;0;22412;0;0;44,74521;72,00062;0,72001;72,00062
72,33296;44,13088;4,41309;43,40400;0;22412;0;0;45,00098;72,33295;0,72333;72,33296
72,66686;44,38648;4,43865;43,60400;0;22412;0;0;45,26161;72,66686;0,72667;72,66686
72,99998;44,64680;4,46468;43,80400;0;22412;0;0;45,52706;72,99998;0,73000;72,99998
73,33280;44,90408;4,49041;44,00400;0;22412;0;0;45,78942;73,33280;0,73333;73,33280
73,66671;45,15457;4,51546;44,20400;0;22412;0;0;46,04485;73,66671;0,73667;73,66671
73,99999;45,41897;4,54190;44,40400;0;22412;0;0;46,31446;73,99998;0,74000;73,99999
74,33342;45,67591;4,56759;44,60400;0;22412;0;0;46,57647;74,33342;0,74333;74,33342
74,66655;45,94463;4,59446;44,80400;0;22412;0;0;46,85049;74,66655;0,74667;74,66655
74,99983;46,21029;4,62103;45,00400;0;22412;0;0;47,12138;74,99983;0,75000;74,99983
75,00655;46,21623;4,62162;45,00800;0;22476;0;0;47,12744;75,00655;0,75007;75,00655
74,68249;44,74765;4,47477;45,20800;0;22476;0;0;45,62991;74,68249;0,74682;74,68249
74,33749;43,51627;4,35163;45,40800;0;22476;0;0;44,37425;74,33749;0,74337;74,33749
74,00358;42,51730;4,25173;45,60800;0;22476;0;0;43,35558;74,00358;0,74004;74,00358
73,66983;41,62362;4,16236;45,80800;0;22476;0;0;42,44428;73,66983;0,73670;73,66983
73,33639;40,81406;4,08141;46,00800;0;22476;0;0;41,61876;73,33640;0,73336;73,33639
73,00327;40,05887;4,00589;46,20800;0;22476;0;0;40,84868;73,00327;0,73003;73,00327
72,66983;39,37013;3,93701;46,40800;0;22476;0;0;40,14636;72,66983;0,72670;72,66983
72,33702;38,71097;3,87110;46,60800;0;22476;0;0;39,47421;72,33701;0,72337;72,33702
72,00358;38,10008;3,81001;46,80800;0;22476;0;0;38,85127;72,00358;0,72004;72,00358
71,67014;37,51571;3,75157;47,00800;0;22476;0;0;38,25538;71,67014;0,71670;71,67014
71,33687;36,96092;3,69609;47,20800;0;22476;0;0;37,68965;71,33687;0,71337;71,33687
71,00327;36,44203;3,64420;47,40800;0;22476;0;0;37,16053;71,00327;0,71003;71,00327
70,66999;35,93461;3,59346;47,60800;0;22476;0;0;36,64311;70,66998;0,70670;70,66999
70,33624;35,45177;3,54518;47,80800;0;22476;0;0;36,15075;70,33624;0,70336;70,33624
70,00280;34,98834;3,49883;48,00800;0;22476;0;0;35,67818;70,00280;0,70003;70,00280
69,66983;34,54441;3,45444;48,20800;0;22476;0;0;35,22549;69,66983;0,69670;69,66983
69,33670;34,10714;3,41071;48,40800;0;22476;0;0;34,77961;69,33671;0,69337;69,33670
69,00343;33,68979;3,36898;48,60800;0;22476;0;0;34,35402;69,00343;0,69003;69,00343
68,67062;33,28997;3,32900;48,80800;0;22476;0;0;33,94632;68,67062;0,68671;68,67062
68,33593;32,90009;3,29001;49,00800;0;22476;0;0;33,54875;68,33593;0,68336;68,33593
68,00280;32,51801;3,25180;49,20800;0;22476;0;0;33,15915;68,00280;0,68003;68,00280
67,67046;32,16143;3,21614;49,40800;0;22476;0;0;32,79553;67,67046;0,67670;67,67046
67,33671;31,80402;3,18040;49,60800;0;22476;0;0;32,43107;67,33671;0,67337;67,33671
67,00405;31,46268;3,14627;49,80800;0;22476;0;0;32,08301;67,00404;0,67004;67,00405
66,67014;31,12743;3,11274;50,00800;0;22476;0;0;31,74115;66,67014;0,66670;66,67014
66,33671;30,80091;3,08009;50,20800;0;22476;0;0;31,40818;66,33671;0,66337;66,33671
66,00296;30,48204;3,04820;50,40800;0;22476;0;0;31,08303;66,00296;0,66003;66,00296
65,67014;30,16903;3,01690;50,60800;0;22476;0;0;30,76385;65,67014;0,65670;65,67014
65,33702;29,86023;2,98602;50,80800;0;22476;0;0;30,44896;65,33702;0,65337;65,33702
65,00264;29,56266;2,95627;51,00800;0;22476;0;0;30,14552;65,00264;0,65003;65,00264
64,67046;29,27826;2,92783;51,20800;0;22476;0;0;29,85552;64,67046;0,64670;64,67046
64,33640;28,99141;2,89914;51,40800;0;22476;0;0;29,56301;64,33640;0,64336;64,33640
64,00311;28,70997;2,87100;51,60800;0;22476;0;0;29,27603;64,00311;0,64003;64,00311
63,67077;28,43622;2,84362;51,80800;0;22476;0;0;28,99687;63,67077;0,63671;63,67077
63,33624;28,16671;2,81667;52,00800;0;22476;0;0;28,72205;63,33624;0,63336;63,33624
63,00312;27,90722;2,79072;52,20800;0;22476;0;0;28,45744;63,00312;0,63003;63,00312
62,67014;27,66264;2,76626;52,40800;0;22476;0;0;28,20804;62,67014;0,62670;62,67014
62,33656;27,41519;2,74152;52,60800;0;22476;0;0;27,95572;62,33656;0,62337;62,33656
62,00406;27,16398;2,71640;52,80800;0;22476;0;0;27,69955;62,00405;0,62004;62,00406
61,66921;26,91586;2,69159;53,00800;0;22476;0;0;27,44654;61,66921;0,61669;61,66921
61,33702;26,68479;2,66848;53,20800;0;22476;0;0;27,21091;61,33702;0,61337;61,33702
61,00343;26,45467;2,64547;53,40800;0;22476;0;0;26,97625;61,00344;0,61003;61,00343
60,66952;26,21310;2,62131;53,60800;0;22476;0;0;26,72992;60,66952;0,60670;60,66952
60,33609;25,99166;2,59917;53,80800;0;22476;0;0;26,50411;60,33609;0,60336;60,33609
60,00280;25,75700;2,57570;54,00800;0;22476;0;0;26,26483;60,00280;0,60003;60,00280
59,66999;25,55828;2,55583;54,20800;0;22476;0;0;26,06219;59,66999;0,59670;59,66999
59,33687;25,35734;2,53573;54,40800;0;22476;0;0;25,85729;59,33686;0,59337;59,33687
59,00343;25,13312;2,51331;54,60800;0;22476;0;0;25,62864;59,00343;0,59003;59,00343
58,67062;24,92000;2,49200;54,80800;0;22476;0;0;25,41133;58,67062;0,58671;58,67062
58,33640;24,70507;2,47051;55,00800;0;22476;0;0;25,19216;58,33640;0,58336;58,33640
58,00312;24,50103;2,45010;55,20800;0;22476;0;0;24,98410;58,00312;0,58003;58,00312
57,67015;24,29789;2,42979;55,40800;0;22476;0;0;24,77696;57,67015;0,57670;57,67015
57,33671;24,09738;2,40974;55,60800;0;22476;0;0;24,57249;57,33671;0,57337;57,33671
57,00406;23,91904;2,39190;55,80800;0;22476;0;0;24,39064;57,00406;0,57004;57,00406
56,67015;23,74462;2,37446;56,00800;0;22476;0;0;24,21278;56,67015;0,56670;56,67015
56,33718;23,56091;2,35609;56,20800;0;22476;0;0;24,02544;56,33718;0,56337;56,33718
56,00312;23,36365;2,33636;56,40800;0;22476;0;0;23,82429;56,00312;0,56003;56,00312
55,66968;23,17585;2,31759;56,60800;0;22476;0;0;23,63279;55,66968;0,55670;55,66968
55,33609;22,98618;2,29862;56,80800;0;22476;0;0;23,43938;55,33609;0,55336;55,33609
55,00359;22,80251;2,28025;57,00800;0;22476;0;0;23,25208;55,00359;0,55004;55,00359
54,66906;22,61271;2,26127;57,20800;0;22476;0;0;23,05855;54,66906;0,54669;54,66906
54,33640;22,43668;2,24367;57,40800;0;22476;0;0;22,87904;54,33640;0,54336;54,33640
54,00312;22,25665;2,22567;57,60800;0;22476;0;0;22,69547;54,00312;0,54003;54,00312
53,66999;22,07379;2,20738;57,80800;0;22476;0;0;22,50901;53,67000;0,53670;53,66999
53,33749;21,89653;2,18965;58,00800;0;22476;0;0;22,32825;53,33749;0,53337;53,33749
53,00280;21,71537;2,17154;58,20800;0;22476;0;0;22,14352;53,00280;0,53003;53,00280
52,66984;21,54410;2,15441;58,40800;0;22476;0;0;21,96887;52,66983;0,52670;52,66984
52,33687;21,37509;2,13751;58,60800;0;22476;0;0;21,79653;52,33686;0,52337;52,33687
52,00343;21,23662;2,12366;58,80800;0;22476;0;0;21,65532;52,00343;0,52003;52,00343
51,67124;21,08491;2,10849;59,00800;0;22476;0;0;21,50062;51,67125;0,51671;51,67124
51,33749;20,90589;2,09059;59,20800;0;22476;0;0;21,31807;51,33749;0,51337;51,33749
51,00343;20,72750;2,07275;59,40800;0;22476;0;0;21,13617;51,00343;0,51003;51,00343
50,66968;20,56326;2,05633;59,60800;0;22476;0;0;20,96869;50,66968;0,50670;50,66968
50,33640;20,39713;2,03971;59,80800;0;22476;0;0;20,79928;50,33640;0,50336;50,33640
50,00405;20,23710;2,02371;60,00800;0;22476;0;0;20,63610;50,00406;0,50004;50,00405
49,66937;20,07242;2,00724;60,20800;0;22476;0;0;20,46817;49,66936;0,49669;49,66937
49,33687;19,90960;1,99096;60,40800;0;22476;0;0;20,30214;49,33687;0,49337;49,33687
49,00296;19,75133;1,97513;60,60800;0;22476;0;0;20,14075;49,00296;0,49003;49,00296
48,66999;19,62226;1,96223;60,80800;0;22476;0;0;20,00914;48,66999;0,48670;48,66999
48,33718;19,46211;1,94621;61,00800;0;22476;0;0;19,84583;48,33718;0,48337;48,33718
48,00327;19,29941;1,92994;61,20800;0;22476;0;0;19,67992;48,00328;0,48003;48,00327
47,66999;19,14193;1,91419;61,40800;0;22476;0;0;19,51934;47,66999;0,47670;47,66999
47,33687;18,98205;1,89821;61,60800;0;22476;0;0;19,35631;47,33687;0,47337;47,33687
47,00312;18,82910;1,88291;61,80800;0;22476;0;0;19,20034;47,00312;0,47003;47,00312
46,67046;18,67347;1,86735;62,00800;0;22476;0;0;19,04164;46,67046;0,46670;46,67046
46,33702;18,53546;1,85355;62,20800;0;22476;0;0;18,90091;46,33702;0,46337;46,33702
46,00343;18,38025;1,83803;62,40800;0;22476;0;0;18,74264;46,00343;0,46003;46,00343
45,67015;18,22533;1,82253;62,60800;0;22476;0;0;18,58466;45,67015;0,45670;45,67015
45,33593;18,07034;1,80703;62,80800;0;22476;0;0;18,42662;45,33593;0,45336;45,33593
45,00343;17,91819;1,79182;63,00800;0;22476;0;0;18,27147;45,00343;0,45003;45,00343
44,66999;17,76925;1,77693;63,20800;0;22476;0;0;18,11960;44,66999;0,44670;44,66999
44,33656;17,61176;1,76118;63,40800;0;22476;0;0;17,95899;44,33656;0,44337;44,33656
44,00343;17,48550;1,74855;63,60800;0;22476;0;0;17,83025;44,00343;0,44003;44,00343
43,67046;17,37716;1,73772;63,80800;0;22476;0;0;17,71977;43,67046;0,43670;43,67046
43,33671;17,21912;1,72191;64,00800;0;22476;0;0;17,55862;43,33671;0,43337;43,33671
43,00328;17,07379;1,70738;64,20800;0;22476;0;0;17,41042;43,00328;0,43003;43,00328
42,66984;16,92104;1,69210;64,40800;0;22476;0;0;17,25466;42,66984;0,42670;42,66984
42,33703;16,77616;1,67762;64,60800;0;22476;0;0;17,10692;42,33702;0,42337;42,33703
42,00359;16,63070;1,66307;64,80801;0;22476;0;0;16,95859;42,00359;0,42004;42,00359
41,67031;16,47762;1,64776;65,00800;0;22476;0;0;16,80249;41,67031;0,41670;41,67031
41,33718;16,33703;1,63370;65,20800;0;22476;0;0;16,65913;41,33718;0,41337;41,33718
41,00343;16,19259;1,61926;65,40800;0;22476;0;0;16,51185;41,00343;0,41003;41,00343
40,66984;16,04771;1,60477;65,60800;0;22476;0;0;16,36411;40,66984;0,40670;40,66984
40,33609;15,92161;1,59216;65,80801;0;22476;0;0;16,23553;40,33609;0,40336;40,33609
40,00374;15,77110;1,57711;66,00800;0;22476;0;0;16,08205;40,00374;0,40004;40,00374
39,67015;15,62847;1,56285;66,20800;0;22476;0;0;15,93660;39,67015;0,39670;39,67015
39,33593;15,48027;1,54803;66,40801;0;22476;0;0;15,78549;39,33593;0,39336;39,33593
39,00312;15,33463;1,53346;66,60800;0;22476;0;0;15,63697;39,00312;0,39003;39,00312
38,66999;15,18991;1,51899;66,80801;0;22476;0;0;15,48940;38,66999;0,38670;38,66999
38,33687;15,05085;1,50508;67,00800;0;22476;0;0;15,34760;38,33687;0,38337;38,33687
38,00390;14,90815;1,49081;67,20800;0;22476;0;0;15,20208;38,00390;0,38004;38,00390
37,66952;14,76521;1,47652;67,40801;0;22476;0;0;15,05633;37,66953;0,37670;37,66952
37,33687;14,67415;1,46741;67,60800;0;22476;0;0;14,96346;37,33687;0,37337;37,33687
37,00343;14,51490;1,45149;67,80801;0;22476;0;0;14,80108;37,00343;0,37003;37,00343
36,67015;14,38012;1,43801;68,00800;0;22476;0;0;14,66364;36,67015;0,36670;36,67015
36,33749;14,22777;1,42278;68,20800;0;22476;0;0;14,50828;36,33749;0,36337;36,33749
36,00312;14,07947;1,40795;68,40801;0;22476;0;0;14,35707;36,00312;0,36003;36,00312
35,67031;13,93298;1,39330;68,60800;0;22476;0;0;14,20769;35,67031;0,35670;35,67031
35,33609;13,78586;1,37859;68,80801;0;22476;0;0;14,05767;35,33609;0,35336;35,33609
35,00327;13,64575;1,36457;69,00800;0;22476;0;0;13,91479;35,00327;0,35003;35,00327
34,67062;13,52461;1,35246;69,20800;0;22476;0;0;13,79126;34,67062;0,34671;34,67062
34,33609;13,36881;1,33688;69,40801;0;22476;0;0;13,63239;34,33609;0,34336;34,33609
34,00328;13,22613;1,32261;69,60800;0;22476;0;0;13,48690;34,00328;0,34003;34,00328
33,67015;13,08027;1,30803;69,80801;0;22476;0;0;13,33817;33,67015;0,33670;33,67015
33,33656;12,93291;1,29329;70,00800;0;22476;0;0;13,18790;33,33656;0,33337;33,33656
33,00390;12,78527;1,27853;70,20800;0;22476;0;0;13,03734;33,00390;0,33004;33,00390
32,66937;12,65753;1,26575;70,40801;0;22476;0;0;12,90708;32,66937;0,32669;32,66937
32,33702;12,51638;1,25164;70,60800;0;22476;0;0;12,76316;32,33702;0,32337;32,33702
32,00328;12,37109;1,23711;70,80801;0;22476;0;0;12,61500;32,00328;0,32003;32,00328
31,66952;12,22274;1,22227;71,00800;0;22476;0;0;12,46373;31,66952;0,31670;31,66952
31,33703;12,07662;1,20766;71,20800;0;22476;0;0;12,31472;31,33703;0,31337;31,33703
31,00250;11,92394;1,19239;71,40801;0;22476;0;0;12,15903;31,00250;0,31002;31,00250
30,67047;11,78059;1,17806;71,60800;0;22476;0;0;12,01286;30,67047;0,30670;30,67047
30,33625;11,62879;1,16288;71,80801;0;22476;0;0;11,85807;30,33625;0,30336;30,33625
30,00296;11,47892;1,14789;72,00800;0;22476;0;0;11,70524;30,00296;0,30003;30,00296
29,66968;11,33858;1,13386;72,20800;0;22476;0;0;11,56213;29,66968;0,29670;29,66968
29,33625;11,20943;1,12094;72,40801;0;22476;0;0;11,43044;29,33625;0,29336;29,33625
29,00312;11,05451;1,10545;72,60800;0;22476;0;0;11,27246;29,00312;0,29003;29,00312
28,67031;10,89900;1,08990;72,80801;0;22476;0;0;11,11389;28,67031;0,28670;28,67031
28,33656;10,74631;1,07463;73,00800;0;22476;0;0;10,95818;28,33656;0,28337;28,33656
28,00359;10,58770;1,05877;73,20800;0;22476;0;0;10,79645;28,00359;0,28004;28,00359
27,66968;10,43723;1,04372;73,40801;0;22476;0;0;10,64301;27,66968;0,27670;27,66968
27,33703;10,28283;1,02828;73,60800;0;22476;0;0;10,48557;27,33703;0,27337;27,33703
27,00406;10,12745;1,01274;73,80801;0;22476;0;0;10,32712;27,00406;0,27004;27,00406
26,66953;9,96531;0,99653;74,00800;0;22476;0;0;10,16179;26,66953;0,26670;26,66953
26,33718;9,81123;0,98112;74,20800;0;22476;0;0;10,00467;26,33718;0,26337;26,33718
26,00312;9,67593;0,96759;74,40801;0;22476;0;0;9,86670;26,00312;0,26003;26,00312
25,67031;9,51444;0,95144;74,60800;0;22476;0;0;9,70203;25,67031;0,25670;25,67031
25,33625;9,34876;0,93488;74,80801;0;22476;0;0;9,53308;25,33625;0,25336;25,33625
25,00312;9,18424;0,91842;75,00800;0;22476;0;0;9,36532;25,00312;0,25003;25,00312
24,66968;9,02380;0,90238;75,20800;0;22476;0;0;9,20171;24,66969;0,24670;24,66968
24,33672;8,85787;0,88579;75,40801;0;22476;0;0;9,03251;24,33672;0,24337;24,33672
24,00328;8,69254;0,86925;75,60800;0;22476;0;0;8,86392;24,00328;0,24003;24,00328
23,67000;8,52333;0,85233;75,80801;0;22476;0;0;8,69137;23,67000;0,23670;23,67000
23,33625;8,35318;0,83532;76,00800;0;22476;0;0;8,51788;23,33625;0,23336;23,33625
23,00359;8,18708;0,81871;76,20800;0;22476;0;0;8,34850;23,00359;0,23004;23,00359
22,67046;8,01620;0,80162;76,40801;0;22476;0;0;8,17425;22,67047;0,22670;22,67046
22,33703;7,84446;0,78445;76,60800;0;22476;0;0;7,99912;22,33703;0,22337;22,33703
22,00375;7,67340;0,76734;76,80801;0;22476;0;0;7,82469;22,00375;0,22004;22,00375
21,66953;7,53427;0,75343;77,00800;0;22476;0;0;7,68282;21,66953;0,21670;21,66953
21,33672;7,35892;0,73589;77,20800;0;22476;0;0;7,50402;21,33672;0,21337;21,33672
21,00437;7,18500;0,71850;77,40801;0;22476;0;0;7,32666;21,00437;0,21004;21,00437
20,67031;6,99926;0,69993;77,60800;0;22476;0;0;7,13726;20,67031;0,20670;20,67031
20,33656;6,82040;0,68204;77,80801;0;22476;0;0;6,95487;20,33656;0,20337;20,33656
20,00281;6,63633;0,66363;78,00800;0;22476;0;0;6,76717;20,00281;0,20003;20,00281
19,66984;6,45008;0,64501;78,20800;0;22476;0;0;6,57725;19,66984;0,19670;19,66984
19,33781;6,26882;0,62688;78,40801;0;22476;0;0;6,39241;19,33781;0,19338;19,33781
19,00312;6,07853;0,60785;78,60800;0;22476;0;0;6,19837;19,00312;0,19003;19,00312
18,67047;5,89153;0,58915;78,80801;0;22476;0;0;6,00769;18,67047;0,18670;18,67047
18,33625;5,70266;0,57027;79,00800;0;22476;0;0;5,81510;18,33625;0,18336;18,33625
18,00359;5,51839;0,55184;79,20800;0;22476;0;0;5,62719;18,00359;0,18004;18,00359
17,67015;5,34075;0,53407;79,40801;0;22476;0;0;5,44605;17,67015;0,17670;17,67015
17,33718;5,14063;0,51406;79,60800;0;22476;0;0;5,24198;17,33718;0,17337;17,33718
17,00343;4,94575;0,49457;79,80801;0;22476;0;0;5,04326;17,00343;0,17003;17,00343
16,66984;4,74391;0,47439;80,00800;0;22476;0;0;4,83745;16,66984;0,16670;16,66984
16,33656;4,54354;0,45435;80,20800;0;22476;0;0;4,63312;16,33656;0,16337;16,33656
16,00359;4,34377;0,43438;80,40801;0;22476;0;0;4,42942;16,00359;0,16004;16,00359
15,67000;4,13989;0,41399;80,60800;0;22476;0;0;4,22151;15,67000;0,15670;15,67000
15,33672;3,93715;0,39372;80,80801;0;22476;0;0;4,01478;15,33672;0,15337;15,33672
15,00312;3,72503;0,37250;81,00800;0;22476;0;0;3,79848;15,00312;0,15003;15,00312
14,66984;3,51844;0,35184;81,20800;0;22476;0;0;3,58781;14,66984;0,14670;14,66984
14,33656;3,31111;0,33111;81,40801;0;22476;0;0;3,37639;14,33656;0,14337;14,33656
14,00312;3,10437;0,31044;81,60800;0;22476;0;0;3,16557;14,00312;0,14003;14,00312
13,66984;2,92027;0,29203;81,80801;0;22476;0;0;2,97784;13,66984;0,13670;13,66984
13,33687;2,73061;0,27306;82,00800;0;22476;0;0;2,78445;13,33687;0,13337;13,33687
13,00375;2,51748;0,25175;82,20800;0;22476;0;0;2,56712;13,00375;0,13004;13,00375
12,67047;2,30701;0,23070;82,40801;0;22476;0;0;2,35250;12,67047;0,12670;12,67047
12,33640;2,09254;0,20925;82,60800;0;22476;0;0;2,13379;12,33640;0,12336;12,33640
12,00344;1,87991;0,18799;82,80801;0;22476;0;0;1,91697;12,00344;0,12003;12,00344
11,67015;1,67836;0,16784;83,00800;0;22476;0;0;1,71145;11,67015;0,11670;11,67015
11,33672;1,47130;0,14713;83,20800;0;22476;0;0;1,50031;11,33672;0,11337;11,33672
11,00359;1,26554;0,12655;83,40801;0;22476;0;0;1,29049;11,00359;0,11004;11,00359
10,67000;1,06309;0,10631;83,60800;0;22476;0;0;1,08405;10,67000;0,10670;10,67000
10,33625;0,86616;0,08662;83,80801;0;22476;0;0;0,88324;10,33625;0,10336;10,33625
10,00297;0,68652;0,06865;84,00800;0;22476;0;0;0,70006;10,00297;0,10003;10,00297
9,66984;0,51112;0,05111;84,20801;0;22476;0;0;0,52120;9,66984;0,09670;9,66984
9,33656;0,35372;0,03537;84,40801;0;22476;0;0;0,36069;9,33656;0,09337;9,33656
9,00328;0,21502;0,02150;84,60800;0;22476;0;0;0,21926;9,00328;0,09003;9,00328
8,66969;0,09713;0,00971;84,80801;0;22476;0;0;0,09905;8,66969;0,08670;8,66969
8,33656;0,00061;0,00006;85,00800;0;22476;0;0;0,00063;8,33656;0,08337;8,33656
8,00312;-0,06763;-0,00676;85,20801;0;22476;0;0;-0,06896;8,00312;0,08003;8,00312
7,67078;-0,07981;-0,00798;85,40801;0;22476;0;0;-0,08139;7,67078;0,07671;7,67078
7,33672;-0,12404;-0,01240;85,60800;0;22476;0;0;-0,12649;7,33672;0,07337;7,33672
7,00344;-0,14159;-0,01416;85,80801;0;22476;0;0;-0,14438;7,00344;0,07003;7,00344
6,66984;-0,15514;-0,01551;86,00800;0;22476;0;0;-0,15820;6,66984;0,06670;6,66984
6,33687;-0,15798;-0,01580;86,20801;0;22476;0;0;-0,16109;6,33687;0,06337;6,33687
6,00375;-0,15941;-0,01594;86,40801;0;22476;0;0;-0,16255;6,00375;0,06004;6,00375
5,67000;-0,16500;-0,01650;86,60800;0;22476;0;0;-0,16826;5,67000;0,05670;5,67000
5,33641;-0,16070;-0,01607;86,80801;0;22476;0;0;-0,16387;5,33641;0,05336;5,33641
5,00344;-0,15976;-0,01598;87,00800;0;22476;0;0;-0,16291;5,00344;0,05003;5,00344
4,66922;-0,16195;-0,01619;87,20801;0;22476;0;0;-0,16514;4,66922;0,04669;4,66922
4,33672;-0,16123;-0,01612;87,40801;0;22476;0;0;-0,16441;4,33672;0,04337;4,33672
4,00328;-0,15776;-0,01578;87,60800;0;22476;0;0;-0,16087;4,00328;0,04003;4,00328
3,66953;-0,15888;-0,01589;87,80801;0;22476;0;0;-0,16202;3,66953;0,03670;3,66953
3,33672;-0,16256;-0,01626;88,00800;0;22476;0;0;-0,16577;3,33672;0,03337;3,33672
3,00297;-0,15955;-0,01596;88,20801;0;22476;0;0;-0,16270;3,00297;0,03003;3,00297
2,67031;-0,15060;-0,01506;88,40801;0;22476;0;0;-0,15357;2,67031;0,02670;2,67031
2,33703;-0,12873;-0,01287;88,60800;0;22476;0;0;-0,13127;2,33703;0,02337;2,33703
2,00344;-0,13448;-0,01345;88,80801;0;22476;0;0;-0,13713;2,00344;0,02003;2,00344
1,67031;-0,12936;-0,01294;89,00800;0;22476;0;0;-0,13191;1,67031;0,01670;1,67031
1,33656;-0,13360;-0,01336;89,20801;0;22476;0;0;-0,13624;1,33656;0,01337;1,33656
1,00297;-0,13666;-0,01367;89,40801;0;22476;0;0;-0,13935;1,00297;0,01003;1,00297
0,66984;-0,13945;-0,01394;89,60800;0;22476;0;0;-0,14220;0,66984;0,00670;0,66984
0,33547;-0,14213;-0,01421;89,80801;0;22476;0;0;-0,14493;0,33547;0,00335;0,33547
0,00391;-0,13963;-0,01396;90,00800;0;22476;0;0;-0,14238;0,00391;0,00004;0,00391
-0,00625;-0,14019;-0,01402;90,01401;1;22412;0;0;-0,14296;-0,00625;-0,00006;-0,00625